"subj" "block" "trial" "stim" "target" "resp" "acc" "rt" "ITI" "difficulty" "task" "session"
45 "P" 1 "b" NA "n" 1 1120 840 1 "P" "001"
45 "P" 2 "t" "b" "n" 1 402 1281 1 "P" "001"
45 "P" 3 "b" "t" "n" 1 385 1050 1 "P" "001"
45 "P" 4 "g" "b" "n" 1 535 674 1 "P" "001"
45 "P" 5 "t" "g" "n" 1 335 931 1 "P" "001"
45 "P" 6 "G" "t" "n" 1 351 1005 1 "P" "001"
45 "P" 7 "v" "g" "n" 1 352 1417 1 "P" "001"
45 "P" 8 "v" "v" "y" 1 486 636 1 "P" "001"
45 "P" 9 "t" "v" "n" 1 402 1268 1 "P" "001"
45 "P" 10 "g" "t" "n" 1 385 1020 1 "P" "001"
45 "P" 11 "t" "g" "n" 1 569 574 1 "P" "001"
45 "P" 12 "t" "t" "y" 1 384 618 1 "P" "001"
45 "P" 13 "V" "t" "n" 1 535 648 1 "P" "001"
45 "P" 14 "B" "v" "n" 1 519 663 1 "P" "001"
45 "P" 15 "t" "b" "n" 1 352 922 1 "P" "001"
45 "P" 16 "g" "t" "n" 1 368 576 1 "P" "001"
45 "P" 17 "G" "g" "y" 1 518 900 1 "P" "001"
45 "P" 18 "b" "g" "n" 1 535 1343 1 "P" "001"
45 "P" 19 "V" "b" "n" 1 551 1174 1 "P" "001"
45 "P" 20 "T" "v" "n" 1 569 735 1 "P" "001"
45 "1" 1 "V" NA "n" 1 835 1055 2 "adaptive" "001"
45 "1" 2 "b" NA "n" 1 652 821 2 "adaptive" "001"
45 "1" 3 "T" "v" "n" 1 635 1312 2 "adaptive" "001"
45 "1" 4 "t" "b" "y" 0 669 803 2 "adaptive" "001"
45 "2" 1 "B" NA "n" 1 318 713 3 "adaptive" "001"
45 "2" 2 "t" NA "n" 1 669 795 3 "adaptive" "001"
45 "2" 3 "T" NA "n" 1 602 862 3 "adaptive" "001"
45 "2" 4 "g" "b" "n" 1 485 1490 3 "adaptive" "001"
45 "3" 1 "g" NA "n" 1 1002 529 4 "adaptive" "001"
45 "3" 2 "G" NA "n" 1 769 1322 4 "adaptive" "001"
45 "3" 3 "b" NA "n" 1 602 1081 4 "adaptive" "001"
45 "3" 4 "V" NA "n" 1 518 1259 4 "adaptive" "001"
45 "4" 1 "g" NA "n" 1 885 1194 2 "two" "001"
45 "4" 2 "g" NA "y" 0 502 1094 2 "two" "001"
45 "4" 3 "b" "g" "n" 1 736 1393 2 "two" "001"
45 "4" 4 "v" "g" "n" 1 535 1407 2 "two" "001"
45 "5" 1 "V" NA "n" 1 435 855 2 "two" "001"
45 "5" 2 "B" NA "n" 1 569 840 2 "two" "001"
45 "5" 3 "B" "v" "n" 1 952 587 2 "two" "001"
45 "5" 4 "B" "b" "y" 1 352 1089 2 "two" "001"
45 "6" 1 "g" NA "n" 1 652 757 2 "two" "001"
45 "6" 2 "G" NA "n" 1 869 655 2 "two" "001"
45 "6" 3 "g" "g" "y" 1 684 1217 2 "two" "001"
45 "6" 4 "V" "g" "n" 1 702 820 2 "two" "001"
46 "P" 1 "V" NA NA -1 NA 913 1 "P" "001"
46 "P" 2 "B" "v" "n" 1 1353 625 1 "P" "001"
46 "P" 3 "B" "b" "y" 1 885 569 1 "P" "001"
46 "P" 4 "v" "b" "y" 0 1303 1184 1 "P" "001"
46 "P" 5 "T" "v" "n" 1 1954 725 1 "P" "001"
46 "P" 6 "G" "t" "n" 1 985 1029 1 "P" "001"
46 "P" 7 "b" "g" "n" 1 635 1455 1 "P" "001"
46 "P" 8 "b" "b" "n" 0 1536 1125 1 "P" "001"
46 "P" 9 "G" "b" "y" 0 1353 1159 1 "P" "001"
46 "P" 10 "b" "g" "y" 0 936 1160 1 "P" "001"
46 "P" 11 "v" "b" "n" 1 1536 911 1 "P" "001"
46 "P" 12 "v" "v" "n" 0 1119 964 1 "P" "001"
46 "P" 13 "v" "v" "y" 1 1153 1366 1 "P" "001"
46 "P" 14 "v" "v" "y" 1 836 1211 1 "P" "001"
46 "P" 15 "v" "v" "y" 1 853 1290 1 "P" "001"
46 "P" 16 "v" "v" "y" 1 618 557 1 "P" "001"
46 "P" 17 "b" "v" "y" 0 801 895 1 "P" "001"
46 "P" 18 "v" "b" "y" 0 1102 934 1 "P" "001"
46 "P" 19 "G" "v" "n" 1 1069 913 1 "P" "001"
46 "P" 20 "g" "g" "n" 0 1086 1008 1 "P" "001"
46 "P" 21 "B" "g" "n" 1 1486 717 1 "P" "001"
46 "P" 22 "G" "b" "n" 1 868 925 1 "P" "001"
46 "P" 23 "G" "g" "y" 1 869 1231 1 "P" "001"
46 "P" 24 "T" "g" "n" 1 652 1416 1 "P" "001"
46 "P" 25 "T" "t" "n" 0 618 573 1 "P" "001"
46 "P" 26 "b" "t" "n" 1 919 1242 1 "P" "001"
46 "P" 27 "T" "b" "y" 0 986 535 1 "P" "001"
46 "P" 28 "T" "t" "y" 1 819 1001 1 "P" "001"
46 "P" 29 "V" "t" "n" 1 719 1236 1 "P" "001"
46 "P" 30 "B" "v" "n" 1 818 1102 1 "P" "001"
46 "P" 31 "V" "b" "n" 1 836 1237 1 "P" "001"
46 "P" 32 "v" "v" "y" 1 834 1144 1 "P" "001"
46 "P" 33 "B" "v" "n" 1 836 1298 1 "P" "001"
46 "P" 34 "B" "b" "y" 1 802 718 1 "P" "001"
46 "P" 35 "v" "b" "n" 1 585 839 1 "P" "001"
46 "P" 36 "G" "v" "y" 0 651 1295 1 "P" "001"
46 "P" 37 "G" "g" "y" 1 1085 1144 1 "P" "001"
46 "P" 38 "G" "g" "y" 1 802 1497 1 "P" "001"
46 "P" 39 "T" "g" "n" 1 835 1334 1 "P" "001"
46 "P" 40 "T" "t" "y" 1 702 621 1 "P" "001"
46 "1" 1 "B" NA "n" 1 1420 938 2 "adaptive" "001"
46 "1" 2 "T" NA "n" 1 1069 806 2 "adaptive" "001"
46 "1" 3 "g" "b" "y" 0 835 825 2 "adaptive" "001"
46 "1" 4 "V" "t" NA 0 NA 1201 2 "adaptive" "001"
46 "1" 5 "B" "g" "n" 1 751 1023 2 "adaptive" "001"
46 "1" 6 "T" "v" "y" 0 936 1341 2 "adaptive" "001"
46 "1" 7 "b" "b" "y" 1 903 680 2 "adaptive" "001"
46 "1" 8 "t" "t" "n" 0 1152 865 2 "adaptive" "001"
46 "1" 9 "B" "b" "y" 1 1035 621 2 "adaptive" "001"
46 "1" 10 "t" "t" "y" 1 918 1356 2 "adaptive" "001"
46 "1" 11 "v" "b" "n" 1 836 1106 2 "adaptive" "001"
46 "1" 12 "t" "t" "y" 1 919 1320 2 "adaptive" "001"
46 "1" 13 "V" "v" "n" 0 1236 1156 2 "adaptive" "001"
46 "1" 14 "G" "t" "n" 1 969 1047 2 "adaptive" "001"
46 "1" 15 "G" "v" "y" 0 852 1301 2 "adaptive" "001"
46 "1" 16 "t" "g" "n" 1 1101 997 2 "adaptive" "001"
46 "1" 17 "b" "g" "n" 1 802 1047 2 "adaptive" "001"
46 "1" 18 "B" "t" "y" 0 885 1335 2 "adaptive" "001"
46 "1" 19 "G" "b" "n" 1 885 835 2 "adaptive" "001"
46 "1" 20 "T" "b" "n" 1 869 1270 2 "adaptive" "001"
46 "2" 1 "v" NA "n" 1 1302 732 1 "adaptive" "001"
46 "2" 2 "T" "v" "n" 1 819 1291 1 "adaptive" "001"
46 "2" 3 "g" "t" "n" 1 519 1330 1 "adaptive" "001"
46 "2" 4 "V" "g" "n" 1 819 1203 1 "adaptive" "001"
46 "2" 5 "t" "v" "n" 1 735 1210 1 "adaptive" "001"
46 "2" 6 "v" "t" "n" 1 535 1428 1 "adaptive" "001"
46 "2" 7 "V" "v" "y" 1 652 730 1 "adaptive" "001"
46 "2" 8 "g" "v" "n" 1 702 1112 1 "adaptive" "001"
46 "2" 9 "G" "g" "y" 1 502 1104 1 "adaptive" "001"
46 "2" 10 "B" "g" "n" 1 719 704 1 "adaptive" "001"
46 "2" 11 "G" "b" "n" 1 903 1321 1 "adaptive" "001"
46 "2" 12 "v" "g" "n" 1 502 1165 1 "adaptive" "001"
46 "2" 13 "t" "v" "n" 1 718 820 1 "adaptive" "001"
46 "2" 14 "T" "t" "y" 1 451 503 1 "adaptive" "001"
46 "2" 15 "G" "t" "n" 1 769 804 1 "adaptive" "001"
46 "2" 16 "G" "g" "n" 0 435 1078 1 "adaptive" "001"
46 "2" 17 "v" "g" "n" 1 701 937 1 "adaptive" "001"
46 "2" 18 "t" "v" "n" 1 685 1015 1 "adaptive" "001"
46 "2" 19 "b" "t" "n" 1 852 594 1 "adaptive" "001"
46 "2" 20 "B" "b" "y" 1 702 1085 1 "adaptive" "001"
46 "3" 1 "t" NA "n" 1 1236 1334 2 "adaptive" "001"
46 "3" 2 "g" NA "n" 1 1237 954 2 "adaptive" "001"
46 "3" 3 "G" "t" "n" 1 1002 1049 2 "adaptive" "001"
46 "3" 4 "v" "g" "n" 1 1069 1178 2 "adaptive" "001"
46 "3" 5 "b" "g" "n" 1 969 1081 2 "adaptive" "001"
46 "3" 6 "b" "v" "y" 0 969 557 2 "adaptive" "001"
46 "3" 7 "G" "b" "n" 1 1036 1038 2 "adaptive" "001"
46 "3" 8 "T" "b" "y" 0 635 738 2 "adaptive" "001"
46 "3" 9 "B" "g" "n" 1 552 1042 2 "adaptive" "001"
46 "3" 10 "t" "t" "n" 0 1153 858 2 "adaptive" "001"
46 "3" 11 "b" "b" "y" 1 602 1229 2 "adaptive" "001"
46 "3" 12 "V" "t" "n" 1 819 681 2 "adaptive" "001"
46 "3" 13 "b" "b" "y" 1 719 1029 2 "adaptive" "001"
46 "3" 14 "g" "v" "n" 1 652 684 2 "adaptive" "001"
46 "3" 15 "t" "b" "n" 1 685 1097 2 "adaptive" "001"
46 "3" 16 "b" "g" "y" 0 735 1361 2 "adaptive" "001"
46 "3" 17 "t" "t" "n" 0 535 880 2 "adaptive" "001"
46 "3" 18 "G" "b" "y" 0 350 1359 2 "adaptive" "001"
46 "3" 19 "v" "t" "n" 1 652 899 2 "adaptive" "001"
46 "3" 20 "G" "g" "y" 1 601 1221 2 "adaptive" "001"
46 "4" 1 "T" NA "n" 1 485 1335 1 "adaptive" "001"
46 "4" 2 "g" "t" "n" 1 518 870 1 "adaptive" "001"
46 "4" 3 "b" "g" "n" 1 519 1258 1 "adaptive" "001"
46 "4" 4 "t" "b" "n" 1 418 647 1 "adaptive" "001"
46 "4" 5 "V" "t" "n" 1 719 660 1 "adaptive" "001"
46 "4" 6 "V" "v" "n" 0 602 541 1 "adaptive" "001"
46 "4" 7 "b" "v" "n" 1 785 716 1 "adaptive" "001"
46 "4" 8 "V" "b" "n" 1 869 1407 1 "adaptive" "001"
46 "4" 9 "v" "v" "y" 1 602 1039 1 "adaptive" "001"
46 "4" 10 "g" "v" "n" 1 1186 1255 1 "adaptive" "001"
46 "4" 11 "t" "g" "n" 1 719 1221 1 "adaptive" "001"
46 "4" 12 "V" "t" "n" 1 602 1133 1 "adaptive" "001"
46 "4" 13 "v" "v" "y" 1 618 1198 1 "adaptive" "001"
46 "4" 14 "V" "v" "y" 1 669 1141 1 "adaptive" "001"
46 "4" 15 "T" "v" "n" 1 567 574 1 "adaptive" "001"
46 "4" 16 "b" "t" "n" 1 835 1260 1 "adaptive" "001"
46 "4" 17 "B" "b" "y" 1 635 1434 1 "adaptive" "001"
46 "4" 18 "V" "b" "n" 1 585 666 1 "adaptive" "001"
46 "4" 19 "V" "v" "n" 0 920 1062 1 "adaptive" "001"
46 "4" 20 "t" "v" "n" 1 669 1456 1 "adaptive" "001"
46 "5" 1 "b" NA "n" 1 952 734 2 "adaptive" "001"
46 "5" 2 "G" NA "n" 1 669 717 2 "adaptive" "001"
46 "5" 3 "v" "b" "n" 1 619 1276 2 "adaptive" "001"
46 "5" 4 "G" "g" "y" 1 619 1486 2 "adaptive" "001"
46 "5" 5 "b" "v" "n" 1 602 740 2 "adaptive" "001"
46 "5" 6 "T" "g" "n" 1 852 672 2 "adaptive" "001"
46 "5" 7 "V" "b" "n" 1 552 525 2 "adaptive" "001"
46 "5" 8 "v" "t" "y" 0 852 1096 2 "adaptive" "001"
46 "5" 9 "g" "v" "n" 1 769 778 2 "adaptive" "001"
46 "5" 10 "g" "v" "n" 1 785 869 2 "adaptive" "001"
46 "5" 11 "t" "g" "n" 1 1018 1299 2 "adaptive" "001"
46 "5" 12 "b" "g" "y" 0 719 1265 2 "adaptive" "001"
46 "5" 13 "G" "t" "n" 1 919 647 2 "adaptive" "001"
46 "5" 14 "T" "b" "y" 0 1136 899 2 "adaptive" "001"
46 "5" 15 "g" "g" "n" 0 852 683 2 "adaptive" "001"
46 "5" 16 "v" "t" "n" 1 1303 791 2 "adaptive" "001"
46 "5" 17 "T" "g" "y" 0 535 1124 2 "adaptive" "001"
46 "5" 18 "V" "v" "n" 0 836 504 2 "adaptive" "001"
46 "5" 19 "B" "t" "n" 1 903 941 2 "adaptive" "001"
46 "5" 20 "V" "v" "y" 1 1053 1282 2 "adaptive" "001"
46 "6" 1 "g" NA "n" 1 952 955 1 "adaptive" "001"
46 "6" 2 "g" "g" "y" 1 702 1110 1 "adaptive" "001"
46 "6" 3 "B" "g" "n" 1 635 1339 1 "adaptive" "001"
46 "6" 4 "t" "b" "n" 1 751 1079 1 "adaptive" "001"
46 "6" 5 "B" "t" "n" 1 1136 800 1 "adaptive" "001"
46 "6" 6 "B" "b" "y" 1 885 823 1 "adaptive" "001"
46 "6" 7 "T" "b" "n" 1 719 858 1 "adaptive" "001"
46 "6" 8 "T" "t" "y" 1 635 620 1 "adaptive" "001"
46 "6" 9 "g" "t" "n" 1 835 1270 1 "adaptive" "001"
46 "6" 10 "G" "g" "y" 1 385 1062 1 "adaptive" "001"
46 "6" 11 "B" "g" "n" 1 736 901 1 "adaptive" "001"
46 "6" 12 "g" "b" "n" 1 919 1455 1 "adaptive" "001"
46 "6" 13 "G" "g" "y" 1 351 1279 1 "adaptive" "001"
46 "6" 14 "G" "g" "y" 1 635 1077 1 "adaptive" "001"
46 "6" 15 "t" "g" "n" 1 635 986 1 "adaptive" "001"
46 "6" 16 "B" "t" "n" 1 786 1120 1 "adaptive" "001"
46 "6" 17 "G" "b" "n" 1 902 1155 1 "adaptive" "001"
46 "6" 18 "G" "g" "y" 1 468 541 1 "adaptive" "001"
46 "6" 19 "G" "g" "y" 1 852 724 1 "adaptive" "001"
46 "6" 20 "b" "g" "n" 1 769 794 1 "adaptive" "001"
46 "7" 1 "t" NA "n" 1 1052 754 2 "adaptive" "001"
46 "7" 2 "G" NA "n" 1 635 1271 2 "adaptive" "001"
46 "7" 3 "G" "t" "y" 0 719 861 2 "adaptive" "001"
46 "7" 4 "B" "g" "n" 1 919 608 2 "adaptive" "001"
46 "7" 5 "b" "g" "n" 1 919 811 2 "adaptive" "001"
46 "7" 6 "T" "b" "n" 1 852 1338 2 "adaptive" "001"
46 "7" 7 "G" "b" "y" 0 635 998 2 "adaptive" "001"
46 "7" 8 "V" "t" "n" 1 686 905 2 "adaptive" "001"
46 "7" 9 "V" "g" "n" 1 1053 673 2 "adaptive" "001"
46 "7" 10 "V" "v" "y" 1 619 760 2 "adaptive" "001"
46 "7" 11 "v" "v" "y" 1 1386 1149 2 "adaptive" "001"
46 "7" 12 "b" "v" "n" 1 702 818 2 "adaptive" "001"
46 "7" 13 "T" "v" "n" 1 1253 1080 2 "adaptive" "001"
46 "7" 14 "t" "b" "n" 1 903 1268 2 "adaptive" "001"
46 "7" 15 "t" "t" "y" 1 302 1318 2 "adaptive" "001"
46 "7" 16 "v" "t" "y" 0 886 1374 2 "adaptive" "001"
46 "7" 17 "b" "t" "n" 1 585 612 2 "adaptive" "001"
46 "7" 18 "t" "v" "y" 0 1203 936 2 "adaptive" "001"
46 "7" 19 "B" "b" "y" 1 1286 1367 2 "adaptive" "001"
46 "7" 20 "v" "t" "n" 1 869 1385 2 "adaptive" "001"
46 "8" 1 "b" NA "n" 1 1052 1280 2 "adaptive" "001"
46 "8" 2 "G" NA "n" 1 635 875 2 "adaptive" "001"
46 "8" 3 "B" "b" "y" 1 652 1007 2 "adaptive" "001"
46 "8" 4 "G" "g" "y" 1 619 875 2 "adaptive" "001"
46 "8" 5 "V" "b" "n" 1 736 774 2 "adaptive" "001"
46 "8" 6 "b" "g" "n" 1 868 1212 2 "adaptive" "001"
46 "8" 7 "V" "v" "y" 1 602 1463 2 "adaptive" "001"
46 "8" 8 "b" "b" "y" 1 634 1138 2 "adaptive" "001"
46 "8" 9 "B" "v" "n" 1 752 1433 2 "adaptive" "001"
46 "8" 10 "t" "b" "n" 1 1303 1036 2 "adaptive" "001"
46 "8" 11 "g" "b" "n" 1 1086 890 2 "adaptive" "001"
46 "8" 12 "G" "t" "y" 0 986 1030 2 "adaptive" "001"
46 "8" 13 "V" "g" "y" 0 969 1274 2 "adaptive" "001"
46 "8" 14 "B" "g" "n" 1 936 1242 2 "adaptive" "001"
46 "8" 15 "v" "v" "n" 0 769 1002 2 "adaptive" "001"
46 "8" 16 "t" "b" "y" 0 1053 828 2 "adaptive" "001"
46 "8" 17 "b" "v" "y" 0 1369 869 2 "adaptive" "001"
46 "8" 18 "G" "t" "n" 1 1403 1459 2 "adaptive" "001"
46 "8" 19 "v" "b" "y" 0 902 616 2 "adaptive" "001"
46 "8" 20 "T" "g" "y" 0 1018 622 2 "adaptive" "001"
46 "9" 1 "g" NA "n" 1 936 1028 1 "adaptive" "001"
46 "9" 2 "G" "g" "y" 1 552 1280 1 "adaptive" "001"
46 "9" 3 "G" "g" "y" 1 619 733 1 "adaptive" "001"
46 "9" 4 "B" "g" "n" 1 602 502 1 "adaptive" "001"
46 "9" 5 "T" "b" "n" 1 569 1106 1 "adaptive" "001"
46 "9" 6 "v" "t" "n" 1 1436 1261 1 "adaptive" "001"
46 "9" 7 "B" "v" "n" 1 701 967 1 "adaptive" "001"
46 "9" 8 "T" "b" "n" 1 685 556 1 "adaptive" "001"
46 "9" 9 "v" "t" "n" 1 1069 1059 1 "adaptive" "001"
46 "9" 10 "T" "v" "y" 0 652 893 1 "adaptive" "001"
46 "9" 11 "G" "t" "n" 1 886 593 1 "adaptive" "001"
46 "9" 12 "v" "g" "n" 1 769 952 1 "adaptive" "001"
46 "9" 13 "b" "v" "n" 1 652 931 1 "adaptive" "001"
46 "9" 14 "t" "b" "n" 1 719 719 1 "adaptive" "001"
46 "9" 15 "V" "t" "n" 1 1169 1271 1 "adaptive" "001"
46 "9" 16 "G" "v" "n" 1 619 736 1 "adaptive" "001"
46 "9" 17 "v" "g" "n" 1 868 837 1 "adaptive" "001"
46 "9" 18 "G" "v" "n" 1 1102 1160 1 "adaptive" "001"
46 "9" 19 "V" "g" "y" 0 936 680 1 "adaptive" "001"
46 "9" 20 "b" "v" "n" 1 819 1399 1 "adaptive" "001"
46 "10" 1 "T" NA "n" 1 1386 699 2 "adaptive" "001"
46 "10" 2 "V" NA "n" 1 385 1297 2 "adaptive" "001"
46 "10" 3 "v" "t" "n" 1 1002 744 2 "adaptive" "001"
46 "10" 4 "B" "v" "n" 1 1353 1302 2 "adaptive" "001"
46 "10" 5 "B" "v" "n" 1 1036 899 2 "adaptive" "001"
46 "10" 6 "v" "b" "y" 0 368 1337 2 "adaptive" "001"
46 "10" 7 "b" "b" "n" 0 886 1180 2 "adaptive" "001"
46 "10" 8 "B" "v" "y" 0 535 1128 2 "adaptive" "001"
46 "10" 9 "V" "b" "y" 0 919 791 2 "adaptive" "001"
46 "10" 10 "B" "b" "n" 0 701 504 2 "adaptive" "001"
46 "10" 11 "g" "v" "y" 0 1036 972 2 "adaptive" "001"
46 "10" 12 "g" "b" "y" 0 818 647 2 "adaptive" "001"
46 "10" 13 "G" "g" "y" 1 852 1319 2 "adaptive" "001"
46 "10" 14 "v" "g" "n" 1 818 1269 2 "adaptive" "001"
46 "10" 15 "g" "g" "y" 1 918 1408 2 "adaptive" "001"
46 "10" 16 "g" "v" "n" 1 952 1251 2 "adaptive" "001"
46 "10" 17 "G" "g" "y" 1 952 1105 2 "adaptive" "001"
46 "10" 18 "T" "g" "n" 1 936 1298 2 "adaptive" "001"
46 "10" 19 "T" "g" "y" 0 969 911 2 "adaptive" "001"
46 "10" 20 "B" "t" "n" 1 636 866 2 "adaptive" "001"
46 "11" 1 "v" NA "n" 1 1169 1315 2 "two" "001"
46 "11" 2 "v" NA "n" 1 902 1485 2 "two" "001"
46 "11" 3 "T" "v" "n" 1 1103 995 2 "two" "001"
46 "11" 4 "V" "v" "y" 1 534 647 2 "two" "001"
46 "11" 5 "G" "t" "n" 1 902 1478 2 "two" "001"
46 "11" 6 "G" "v" "n" 1 901 1331 2 "two" "001"
46 "11" 7 "t" "g" "y" 0 886 567 2 "two" "001"
46 "11" 8 "V" "g" "n" 1 969 807 2 "two" "001"
46 "11" 9 "B" "t" "n" 1 786 1031 2 "two" "001"
46 "11" 10 "V" "v" "y" 1 535 1183 2 "two" "001"
46 "11" 11 "v" "b" "y" 0 702 736 2 "two" "001"
46 "11" 12 "v" "v" "y" 1 936 963 2 "two" "001"
46 "11" 13 "v" "v" "y" 1 769 1365 2 "two" "001"
46 "11" 14 "t" "v" "n" 1 534 511 2 "two" "001"
46 "11" 15 "B" "v" "n" 1 1470 1082 2 "two" "001"
46 "11" 16 "G" "t" "y" 0 719 1456 2 "two" "001"
46 "11" 17 "G" "b" "y" 0 1086 792 2 "two" "001"
46 "11" 18 "g" "g" "y" 1 452 734 2 "two" "001"
46 "11" 19 "V" "g" "n" 1 1103 1204 2 "two" "001"
46 "11" 20 "G" "g" "n" 0 835 905 2 "two" "001"
46 "12" 1 "G" NA "n" 1 1336 1377 2 "two" "001"
46 "12" 2 "G" NA "n" 1 352 706 2 "two" "001"
46 "12" 3 "V" "g" "n" 1 1003 1329 2 "two" "001"
46 "12" 4 "t" "g" "n" 1 502 912 2 "two" "001"
46 "12" 5 "v" "v" "y" 1 1270 1437 2 "two" "001"
46 "12" 6 "b" "t" "n" 1 569 1048 2 "two" "001"
46 "12" 7 "g" "v" "n" 1 685 675 2 "two" "001"
46 "12" 8 "v" "b" "n" 1 1036 1052 2 "two" "001"
46 "12" 9 "g" "g" "y" 1 468 662 2 "two" "001"
46 "12" 10 "G" "v" "y" 0 1152 555 2 "two" "001"
46 "12" 11 "g" "g" "y" 1 1002 762 2 "two" "001"
46 "12" 12 "V" "g" "n" 1 1236 511 2 "two" "001"
46 "12" 13 "g" "g" "n" 0 1185 946 2 "two" "001"
46 "12" 14 "v" "v" "y" 1 802 678 2 "two" "001"
46 "12" 15 "T" "g" "n" 1 902 732 2 "two" "001"
46 "12" 16 "b" "v" "y" 0 785 819 2 "two" "001"
46 "12" 17 "g" "t" "n" 1 1270 882 2 "two" "001"
46 "12" 18 "T" "b" "n" 1 802 656 2 "two" "001"
46 "12" 19 "v" "g" "n" 1 1352 580 2 "two" "001"
46 "12" 20 "T" "t" "n" 0 1169 1413 2 "two" "001"
46 "13" 1 "T" NA "n" 1 635 542 2 "two" "001"
46 "13" 2 "G" NA "n" 1 335 988 2 "two" "001"
46 "13" 3 "t" "t" "y" 1 368 1071 2 "two" "001"
46 "13" 4 "t" "g" "n" 1 685 847 2 "two" "001"
46 "13" 5 "G" "t" "n" 1 1119 560 2 "two" "001"
46 "13" 6 "g" "t" "y" 0 1569 742 2 "two" "001"
46 "13" 7 "G" "g" "y" 1 1103 1345 2 "two" "001"
46 "13" 8 "v" "g" "n" 1 685 1008 2 "two" "001"
46 "13" 9 "g" "g" "y" 1 1119 1339 2 "two" "001"
46 "13" 10 "v" "v" "n" 0 1103 919 2 "two" "001"
46 "13" 11 "G" "g" "n" 0 1519 1277 2 "two" "001"
46 "13" 12 "T" "v" "n" 1 1003 1199 2 "two" "001"
46 "13" 13 "b" "g" "y" 0 652 780 2 "two" "001"
46 "13" 14 "G" "t" "y" 0 919 1250 2 "two" "001"
46 "13" 15 "b" "b" "y" 1 352 1064 2 "two" "001"
46 "13" 16 "g" "g" "y" 1 818 749 2 "two" "001"
46 "13" 17 "G" "b" "y" 0 884 697 2 "two" "001"
46 "13" 18 "B" "g" "n" 1 1019 1052 2 "two" "001"
46 "13" 19 "b" "g" "n" 1 1035 787 2 "two" "001"
46 "13" 20 "b" "b" "y" 1 418 1214 2 "two" "001"
46 "14" 1 "t" NA "n" 1 1019 751 1 "two" "001"
46 "14" 2 "g" "t" "n" 1 918 1465 1 "two" "001"
46 "14" 3 "G" "g" "y" 1 519 1053 1 "two" "001"
46 "14" 4 "b" "g" "n" 1 735 1021 1 "two" "001"
46 "14" 5 "t" "b" "n" 1 986 634 1 "two" "001"
46 "14" 6 "g" "t" "n" 1 569 597 1 "two" "001"
46 "14" 7 "t" "g" "y" 0 518 1332 1 "two" "001"
46 "14" 8 "v" "t" "n" 1 585 1383 1 "two" "001"
46 "14" 9 "B" "v" "n" 1 636 1246 1 "two" "001"
46 "14" 10 "T" "b" "n" 1 752 869 1 "two" "001"
46 "14" 11 "t" "t" "y" 1 686 1072 1 "two" "001"
46 "14" 12 "G" "t" "n" 1 669 801 1 "two" "001"
46 "14" 13 "b" "g" "n" 1 668 1078 1 "two" "001"
46 "14" 14 "V" "b" "n" 1 585 579 1 "two" "001"
46 "14" 15 "G" "v" "n" 1 1019 1327 1 "two" "001"
46 "14" 16 "b" "g" "n" 1 586 1301 1 "two" "001"
46 "14" 17 "G" "b" "y" 0 769 560 1 "two" "001"
46 "14" 18 "t" "g" "n" 1 752 1182 1 "two" "001"
46 "14" 19 "b" "t" "n" 1 602 578 1 "two" "001"
46 "14" 20 "t" "b" "n" 1 752 633 1 "two" "001"
46 "15" 1 "G" NA "n" 1 752 1389 2 "two" "001"
46 "15" 2 "g" NA "n" 1 602 590 2 "two" "001"
46 "15" 3 "T" "g" "n" 1 602 519 2 "two" "001"
46 "15" 4 "T" "g" "n" 1 485 1495 2 "two" "001"
46 "15" 5 "t" "t" "y" 1 335 1030 2 "two" "001"
46 "15" 6 "V" "t" "n" 1 552 896 2 "two" "001"
46 "15" 7 "g" "t" "y" 0 819 628 2 "two" "001"
46 "15" 8 "B" "v" "n" 1 602 790 2 "two" "001"
46 "15" 9 "T" "g" "y" 0 835 1413 2 "two" "001"
46 "15" 10 "g" "b" "n" 1 801 727 2 "two" "001"
46 "15" 11 "T" "t" "y" 1 735 927 2 "two" "001"
46 "15" 12 "B" "g" "n" 1 569 935 2 "two" "001"
46 "15" 13 "V" "t" "y" 0 451 766 2 "two" "001"
46 "15" 14 "V" "b" "n" 1 418 649 2 "two" "001"
46 "15" 15 "B" "v" "y" 0 385 837 2 "two" "001"
46 "15" 16 "g" "v" "n" 1 552 1479 2 "two" "001"
46 "15" 17 "t" "b" "n" 1 335 1192 2 "two" "001"
46 "15" 18 "B" "g" "y" 0 419 890 2 "two" "001"
46 "15" 19 "T" "t" "n" 0 452 1327 2 "two" "001"
46 "15" 20 "V" "b" "y" 0 284 1354 2 "two" "001"
46 "16" 1 "b" NA "n" 1 952 1076 1 "two" "001"
46 "16" 2 "g" "b" "n" 1 803 1026 1 "two" "001"
46 "16" 3 "G" "g" "y" 1 736 1290 1 "two" "001"
46 "16" 4 "B" "g" "n" 1 869 511 1 "two" "001"
46 "16" 5 "V" "b" "n" 1 585 1457 1 "two" "001"
46 "16" 6 "b" "v" "n" 1 585 1093 1 "two" "001"
46 "16" 7 "T" "b" "n" 1 619 640 1 "two" "001"
46 "16" 8 "T" "t" "y" 1 719 961 1 "two" "001"
46 "16" 9 "v" "t" "n" 1 452 501 1 "two" "001"
46 "16" 10 "B" "v" "n" 1 735 1460 1 "two" "001"
46 "16" 11 "v" "b" "n" 1 302 590 1 "two" "001"
46 "16" 12 "B" "v" "n" 1 652 1169 1 "two" "001"
46 "16" 13 "T" "b" "n" 1 685 519 1 "two" "001"
46 "16" 14 "g" "t" "n" 1 719 1126 1 "two" "001"
46 "16" 15 "b" "g" "n" 1 735 668 1 "two" "001"
46 "16" 16 "v" "b" "n" 1 502 854 1 "two" "001"
46 "16" 17 "g" "v" "n" 1 435 617 1 "two" "001"
46 "16" 18 "t" "g" "n" 1 452 725 1 "two" "001"
46 "16" 19 "t" "t" "y" 1 553 1033 1 "two" "001"
46 "16" 20 "v" "t" "n" 1 535 851 1 "two" "001"
46 "17" 1 "g" NA "n" 1 786 919 2 "two" "001"
46 "17" 2 "v" NA "n" 1 502 764 2 "two" "001"
46 "17" 3 "V" "g" "n" 1 1052 739 2 "two" "001"
46 "17" 4 "V" "v" "y" 1 451 634 2 "two" "001"
46 "17" 5 "t" "v" "n" 1 652 636 2 "two" "001"
46 "17" 6 "v" "v" "y" 1 902 953 2 "two" "001"
46 "17" 7 "T" "t" "n" 0 435 1096 2 "two" "001"
46 "17" 8 "v" "v" "y" 1 418 1209 2 "two" "001"
46 "17" 9 "g" "t" "n" 1 535 900 2 "two" "001"
46 "17" 10 "b" "v" "y" 0 652 1103 2 "two" "001"
46 "17" 11 "t" "g" "y" 0 318 1102 2 "two" "001"
46 "17" 12 "G" "b" "n" 1 385 574 2 "two" "001"
46 "17" 13 "B" "t" "y" 0 702 854 2 "two" "001"
46 "17" 14 "g" "g" "n" 0 602 884 2 "two" "001"
46 "17" 15 "B" "b" "y" 1 285 1365 2 "two" "001"
46 "17" 16 "b" "g" "n" 1 251 1458 2 "two" "001"
46 "17" 17 "v" "b" "n" 1 502 1383 2 "two" "001"
46 "17" 18 "g" "b" "y" 0 636 803 2 "two" "001"
46 "17" 19 "V" "v" "n" 0 585 847 2 "two" "001"
46 "17" 20 "V" "g" "y" 0 335 697 2 "two" "001"
46 "18" 1 "V" NA "n" 1 936 1430 1 "two" "001"
46 "18" 2 "B" "v" "n" 1 602 1319 1 "two" "001"
46 "18" 3 "b" "b" "y" 1 836 535 1 "two" "001"
46 "18" 4 "T" "b" "n" 1 619 1268 1 "two" "001"
46 "18" 5 "v" "t" "n" 1 535 550 1 "two" "001"
46 "18" 6 "g" "v" "n" 1 618 919 1 "two" "001"
46 "18" 7 "T" "g" "n" 1 585 1320 1 "two" "001"
46 "18" 8 "b" "t" "n" 1 435 1057 1 "two" "001"
46 "18" 9 "v" "b" "n" 1 619 674 1 "two" "001"
46 "18" 10 "V" "v" "y" 1 551 1144 1 "two" "001"
46 "18" 11 "g" "v" "n" 1 584 934 1 "two" "001"
46 "18" 12 "V" "g" "n" 1 902 1138 1 "two" "001"
46 "18" 13 "T" "v" "n" 1 485 1499 1 "two" "001"
46 "18" 14 "G" "t" "n" 1 519 789 1 "two" "001"
46 "18" 15 "v" "g" "n" 1 652 683 1 "two" "001"
46 "18" 16 "B" "v" "n" 1 452 1067 1 "two" "001"
46 "18" 17 "g" "b" "n" 1 586 1305 1 "two" "001"
46 "18" 18 "v" "g" "n" 1 318 896 1 "two" "001"
46 "18" 19 "v" "v" "y" 1 519 1042 1 "two" "001"
46 "18" 20 "T" "v" "n" 1 635 1374 1 "two" "001"
46 "19" 1 "T" NA "n" 1 1036 593 2 "two" "001"
46 "19" 2 "t" NA "n" 1 468 1388 2 "two" "001"
46 "19" 3 "B" "t" "n" 1 468 1097 2 "two" "001"
46 "19" 4 "t" "t" "y" 1 385 932 2 "two" "001"
46 "19" 5 "G" "b" "n" 1 469 664 2 "two" "001"
46 "19" 6 "b" "t" "n" 1 785 1494 2 "two" "001"
46 "19" 7 "G" "g" "y" 1 835 1108 2 "two" "001"
46 "19" 8 "G" "b" "n" 1 686 962 2 "two" "001"
46 "19" 9 "G" "g" "y" 1 735 598 2 "two" "001"
46 "19" 10 "T" "g" "n" 1 535 1350 2 "two" "001"
46 "19" 11 "b" "g" "y" 0 268 959 2 "two" "001"
46 "19" 12 "B" "t" "n" 1 602 1405 2 "two" "001"
46 "19" 13 "V" "b" "n" 1 468 734 2 "two" "001"
46 "19" 14 "B" "b" "y" 1 485 789 2 "two" "001"
46 "19" 15 "b" "v" "n" 1 635 782 2 "two" "001"
46 "19" 16 "V" "b" "y" 0 335 1405 2 "two" "001"
46 "19" 17 "G" "b" "n" 1 352 1304 2 "two" "001"
46 "19" 18 "g" "v" "y" 0 819 1084 2 "two" "001"
46 "19" 19 "G" "g" "y" 1 852 939 2 "two" "001"
46 "19" 20 "t" "g" "n" 1 435 593 2 "two" "001"
46 "20" 1 "t" NA "n" 1 351 1454 2 "two" "001"
46 "20" 2 "T" NA "n" 1 519 1411 2 "two" "001"
46 "20" 3 "t" "t" "y" 1 552 1497 2 "two" "001"
46 "20" 4 "v" "t" "n" 1 502 535 2 "two" "001"
46 "20" 5 "g" "t" "n" 1 719 1346 2 "two" "001"
46 "20" 6 "t" "v" "n" 1 802 837 2 "two" "001"
46 "20" 7 "v" "g" "n" 1 435 913 2 "two" "001"
46 "20" 8 "b" "t" "n" 1 635 769 2 "two" "001"
46 "20" 9 "T" "v" "n" 1 536 1357 2 "two" "001"
46 "20" 10 "v" "b" "n" 1 418 502 2 "two" "001"
46 "20" 11 "t" "t" "y" 1 651 1119 2 "two" "001"
46 "20" 12 "T" "v" "n" 1 335 1495 2 "two" "001"
46 "20" 13 "G" "t" "y" 0 301 1035 2 "two" "001"
46 "20" 14 "V" "t" "n" 1 619 1369 2 "two" "001"
46 "20" 15 "T" "g" "y" 0 285 500 2 "two" "001"
46 "20" 16 "V" "v" "n" 0 352 1432 2 "two" "001"
46 "20" 17 "B" "t" "n" 1 352 795 2 "two" "001"
46 "20" 18 "V" "v" "n" 0 452 1005 2 "two" "001"
46 "20" 19 "b" "b" "y" 1 785 1123 2 "two" "001"
46 "20" 20 "b" "v" "y" 0 319 1275 2 "two" "001"
46 "P" 1 "t" NA "n" 1 918 582 1 "P" "002"
46 "P" 2 "t" "t" "y" 1 418 707 1 "P" "002"
46 "P" 3 "b" "t" "n" 1 402 913 1 "P" "002"
46 "P" 4 "t" "b" "n" 1 569 1125 1 "P" "002"
46 "P" 5 "G" "t" "y" 0 635 779 1 "P" "002"
46 "P" 6 "t" "g" "n" 1 585 1362 1 "P" "002"
46 "P" 7 "g" "t" "n" 1 686 1385 1 "P" "002"
46 "P" 8 "G" "g" "y" 1 552 1396 1 "P" "002"
46 "P" 9 "T" "g" "n" 1 452 1403 1 "P" "002"
46 "P" 10 "V" "t" "n" 1 502 1082 1 "P" "002"
46 "P" 11 "g" "v" "n" 1 668 1232 1 "P" "002"
46 "P" 12 "t" "g" "n" 1 435 790 1 "P" "002"
46 "P" 13 "V" "t" "n" 1 568 606 1 "P" "002"
46 "P" 14 "g" "v" "n" 1 668 937 1 "P" "002"
46 "P" 15 "b" "g" "n" 1 635 891 1 "P" "002"
46 "P" 16 "t" "b" "n" 1 552 1263 1 "P" "002"
46 "P" 17 "V" "t" "n" 1 451 1156 1 "P" "002"
46 "P" 18 "v" "v" "y" 1 635 976 1 "P" "002"
46 "P" 19 "b" "v" "n" 1 569 521 1 "P" "002"
46 "P" 20 "B" "b" "n" 0 518 813 1 "P" "002"
46 "1" 1 "g" NA "n" 1 836 888 2 "adaptive" "002"
46 "1" 2 "B" NA "n" 1 602 627 2 "adaptive" "002"
46 "1" 3 "V" "g" "n" 1 501 1144 2 "adaptive" "002"
46 "1" 4 "b" "b" "y" 1 635 780 2 "adaptive" "002"
46 "1" 5 "g" "v" "n" 1 418 876 2 "adaptive" "002"
46 "1" 6 "b" "b" "y" 1 836 1017 2 "adaptive" "002"
46 "1" 7 "V" "g" "n" 1 736 1175 2 "adaptive" "002"
46 "1" 8 "v" "b" "n" 1 635 704 2 "adaptive" "002"
46 "1" 9 "v" "v" "y" 1 535 906 2 "adaptive" "002"
46 "1" 10 "b" "v" "n" 1 452 1423 2 "adaptive" "002"
46 "1" 11 "T" "v" "n" 1 402 656 2 "adaptive" "002"
46 "1" 12 "G" "b" "n" 1 769 723 2 "adaptive" "002"
46 "1" 13 "G" "t" "n" 1 402 908 2 "adaptive" "002"
46 "1" 14 "G" "g" "y" 1 319 610 2 "adaptive" "002"
46 "1" 15 "V" "g" "n" 1 819 710 2 "adaptive" "002"
46 "1" 16 "T" "g" "n" 1 635 1062 2 "adaptive" "002"
46 "1" 17 "v" "v" "y" 1 685 1170 2 "adaptive" "002"
46 "1" 18 "v" "t" "n" 1 352 1027 2 "adaptive" "002"
46 "1" 19 "V" "v" "y" 1 652 822 2 "adaptive" "002"
46 "1" 20 "t" "v" "n" 1 452 611 2 "adaptive" "002"
46 "2" 1 "b" NA "n" 1 953 988 3 "adaptive" "002"
46 "2" 2 "V" NA "n" 1 335 1470 3 "adaptive" "002"
46 "2" 3 "g" NA "n" 1 384 865 3 "adaptive" "002"
46 "2" 4 "B" "b" "y" 1 419 1168 3 "adaptive" "002"
46 "2" 5 "G" "v" "n" 1 401 857 3 "adaptive" "002"
46 "2" 6 "b" "g" "n" 1 719 1094 3 "adaptive" "002"
46 "2" 7 "v" "b" "y" 0 485 1028 3 "adaptive" "002"
46 "2" 8 "V" "g" "n" 1 452 1056 3 "adaptive" "002"
46 "2" 9 "T" "b" "y" 0 334 1410 3 "adaptive" "002"
46 "2" 10 "t" "v" "y" 0 418 1349 3 "adaptive" "002"
46 "2" 11 "B" "v" "n" 1 352 1411 3 "adaptive" "002"
46 "2" 12 "T" "t" "y" 1 301 1251 3 "adaptive" "002"
46 "2" 13 "b" "t" "n" 1 452 689 3 "adaptive" "002"
46 "2" 14 "G" "b" "y" 0 602 763 3 "adaptive" "002"
46 "2" 15 "V" "t" "n" 1 519 1438 3 "adaptive" "002"
46 "2" 16 "B" "b" "n" 0 485 1165 3 "adaptive" "002"
46 "2" 17 "v" "g" "y" 0 551 1414 3 "adaptive" "002"
46 "2" 18 "t" "v" "n" 1 469 612 3 "adaptive" "002"
46 "2" 19 "b" "b" "y" 1 802 1430 3 "adaptive" "002"
46 "2" 20 "b" "v" "n" 1 469 1052 3 "adaptive" "002"
46 "3" 1 "v" NA "n" 1 385 760 2 "adaptive" "002"
46 "3" 2 "T" NA "n" 1 819 621 2 "adaptive" "002"
46 "3" 3 "v" "v" "y" 1 535 1238 2 "adaptive" "002"
46 "3" 4 "t" "t" "y" 1 385 1150 2 "adaptive" "002"
46 "3" 5 "g" "v" "n" 1 836 721 2 "adaptive" "002"
46 "3" 6 "T" "t" "y" 1 585 900 2 "adaptive" "002"
46 "3" 7 "B" "g" "n" 1 636 852 2 "adaptive" "002"
46 "3" 8 "g" "t" "n" 1 550 507 2 "adaptive" "002"
46 "3" 9 "g" "b" "n" 1 568 1358 2 "adaptive" "002"
46 "3" 10 "g" "g" "y" 1 285 1185 2 "adaptive" "002"
46 "3" 11 "b" "g" "n" 1 585 1334 2 "adaptive" "002"
46 "3" 12 "B" "g" "n" 1 435 1407 2 "adaptive" "002"
46 "3" 13 "T" "b" "n" 1 718 1146 2 "adaptive" "002"
46 "3" 14 "B" "b" "y" 1 385 1290 2 "adaptive" "002"
46 "3" 15 "G" "t" "n" 1 402 1475 2 "adaptive" "002"
46 "3" 16 "t" "b" "y" 0 435 1308 2 "adaptive" "002"
46 "3" 17 "v" "g" "n" 1 535 1096 2 "adaptive" "002"
46 "3" 18 "V" "t" "n" 1 752 798 2 "adaptive" "002"
46 "3" 19 "b" "v" "n" 1 736 1413 2 "adaptive" "002"
46 "3" 20 "G" "v" "n" 1 769 693 2 "adaptive" "002"
46 "4" 1 "b" NA "n" 1 685 1416 3 "adaptive" "002"
46 "4" 2 "b" NA "n" 1 452 843 3 "adaptive" "002"
46 "4" 3 "v" NA "n" 1 701 1446 3 "adaptive" "002"
46 "4" 4 "t" "b" "n" 1 568 965 3 "adaptive" "002"
46 "4" 5 "v" "b" "n" 1 902 510 3 "adaptive" "002"
46 "4" 6 "t" "v" "n" 1 919 947 3 "adaptive" "002"
46 "4" 7 "b" "t" "n" 1 668 634 3 "adaptive" "002"
46 "4" 8 "b" "v" "n" 1 552 1221 3 "adaptive" "002"
46 "4" 9 "v" "t" "n" 1 619 731 3 "adaptive" "002"
46 "4" 10 "T" "b" "y" 0 719 1295 3 "adaptive" "002"
46 "4" 11 "v" "b" "n" 1 569 901 3 "adaptive" "002"
46 "4" 12 "B" "v" "y" 0 352 1461 3 "adaptive" "002"
46 "4" 13 "b" "t" "n" 1 686 1314 3 "adaptive" "002"
46 "4" 14 "G" "v" "n" 1 569 1059 3 "adaptive" "002"
46 "4" 15 "t" "b" "n" 1 852 1370 3 "adaptive" "002"
46 "4" 16 "V" "b" "y" 0 686 914 3 "adaptive" "002"
46 "4" 17 "t" "g" "n" 1 801 998 3 "adaptive" "002"
46 "4" 18 "T" "t" "y" 1 601 944 3 "adaptive" "002"
46 "4" 19 "V" "v" "n" 0 719 856 3 "adaptive" "002"
46 "4" 20 "B" "t" "n" 1 652 718 3 "adaptive" "002"
46 "5" 1 "b" NA "n" 1 485 918 3 "adaptive" "002"
46 "5" 2 "v" NA "n" 1 334 1011 3 "adaptive" "002"
46 "5" 3 "b" NA "n" 1 352 901 3 "adaptive" "002"
46 "5" 4 "V" "b" "n" 1 668 1026 3 "adaptive" "002"
46 "5" 5 "v" "v" "y" 1 585 1358 3 "adaptive" "002"
46 "5" 6 "G" "b" "n" 1 585 1224 3 "adaptive" "002"
46 "5" 7 "V" "v" "y" 1 419 1083 3 "adaptive" "002"
46 "5" 8 "B" "v" "n" 1 802 888 3 "adaptive" "002"
46 "5" 9 "B" "g" "n" 1 786 507 3 "adaptive" "002"
46 "5" 10 "G" "v" "n" 1 752 1337 3 "adaptive" "002"
46 "5" 11 "g" "b" "n" 1 551 503 3 "adaptive" "002"
46 "5" 12 "t" "b" "n" 1 686 1035 3 "adaptive" "002"
46 "5" 13 "b" "g" "n" 1 469 853 3 "adaptive" "002"
46 "5" 14 "b" "g" "n" 1 601 643 3 "adaptive" "002"
46 "5" 15 "B" "t" "y" 0 951 687 3 "adaptive" "002"
46 "5" 16 "v" "b" "n" 1 769 1256 3 "adaptive" "002"
46 "5" 17 "T" "b" "n" 1 518 1294 3 "adaptive" "002"
46 "5" 18 "b" "b" "y" 1 435 717 3 "adaptive" "002"
46 "5" 19 "B" "v" "n" 1 669 977 3 "adaptive" "002"
46 "5" 20 "t" "t" "y" 1 902 1396 3 "adaptive" "002"
46 "6" 1 "v" NA "n" 1 784 1384 4 "adaptive" "002"
46 "6" 2 "V" NA "n" 1 284 1414 4 "adaptive" "002"
46 "6" 3 "t" NA "n" 1 385 612 4 "adaptive" "002"
46 "6" 4 "g" NA "n" 1 735 1364 4 "adaptive" "002"
46 "6" 5 "b" "v" "n" 1 418 617 4 "adaptive" "002"
46 "6" 6 "g" "v" "n" 1 803 1376 4 "adaptive" "002"
46 "6" 7 "t" "t" "y" 1 502 1313 4 "adaptive" "002"
46 "6" 8 "t" "g" "n" 1 652 1360 4 "adaptive" "002"
46 "6" 9 "g" "b" "n" 1 802 1230 4 "adaptive" "002"
46 "6" 10 "t" "g" "y" 0 285 1331 4 "adaptive" "002"
46 "6" 11 "T" "t" "n" 0 619 1018 4 "adaptive" "002"
46 "6" 12 "g" "t" "n" 1 619 601 4 "adaptive" "002"
46 "6" 13 "b" "g" "n" 1 953 984 4 "adaptive" "002"
46 "6" 14 "b" "t" "y" 0 368 1000 4 "adaptive" "002"
46 "6" 15 "T" "t" "y" 1 736 1285 4 "adaptive" "002"
46 "6" 16 "t" "g" "y" 0 418 617 4 "adaptive" "002"
46 "6" 17 "b" "b" "n" 0 785 819 4 "adaptive" "002"
46 "6" 18 "G" "b" "y" 0 434 1062 4 "adaptive" "002"
46 "6" 19 "G" "t" "n" 1 285 620 4 "adaptive" "002"
46 "6" 20 "t" "t" "y" 1 335 1159 4 "adaptive" "002"
46 "7" 1 "B" NA "n" 1 451 680 3 "adaptive" "002"
46 "7" 2 "B" NA "n" 1 485 1090 3 "adaptive" "002"
46 "7" 3 "g" NA "n" 1 602 1012 3 "adaptive" "002"
46 "7" 4 "v" "b" "n" 1 418 714 3 "adaptive" "002"
46 "7" 5 "v" "b" "n" 1 619 1381 3 "adaptive" "002"
46 "7" 6 "B" "g" "n" 1 719 980 3 "adaptive" "002"
46 "7" 7 "V" "v" "y" 1 852 1213 3 "adaptive" "002"
46 "7" 8 "v" "v" "y" 1 319 544 3 "adaptive" "002"
46 "7" 9 "v" "b" "n" 1 851 1104 3 "adaptive" "002"
46 "7" 10 "b" "v" "n" 1 836 1297 3 "adaptive" "002"
46 "7" 11 "T" "v" "n" 1 586 724 3 "adaptive" "002"
46 "7" 12 "B" "v" "y" 0 685 1213 3 "adaptive" "002"
46 "7" 13 "V" "b" "y" 0 769 706 3 "adaptive" "002"
46 "7" 14 "T" "t" "y" 1 585 1328 3 "adaptive" "002"
46 "7" 15 "G" "b" "n" 1 452 1488 3 "adaptive" "002"
46 "7" 16 "t" "v" "n" 1 585 1090 3 "adaptive" "002"
46 "7" 17 "G" "t" "n" 1 752 955 3 "adaptive" "002"
46 "7" 18 "B" "g" "y" 0 585 1477 3 "adaptive" "002"
46 "7" 19 "T" "t" "n" 0 635 1321 3 "adaptive" "002"
46 "7" 20 "b" "g" "n" 1 1036 1463 3 "adaptive" "002"
46 "8" 1 "V" NA "n" 1 569 1164 3 "adaptive" "002"
46 "8" 2 "G" NA "n" 1 552 1217 3 "adaptive" "002"
46 "8" 3 "g" NA "n" 1 484 988 3 "adaptive" "002"
46 "8" 4 "v" "v" "y" 1 403 1402 3 "adaptive" "002"
46 "8" 5 "g" "g" "y" 1 484 1013 3 "adaptive" "002"
46 "8" 6 "G" "g" "y" 1 602 735 3 "adaptive" "002"
46 "8" 7 "V" "v" "y" 1 685 1362 3 "adaptive" "002"
46 "8" 8 "v" "g" "n" 1 402 1000 3 "adaptive" "002"
46 "8" 9 "T" "g" "n" 1 602 671 3 "adaptive" "002"
46 "8" 10 "T" "v" "n" 1 769 1290 3 "adaptive" "002"
46 "8" 11 "T" "v" "n" 1 585 582 3 "adaptive" "002"
46 "8" 12 "v" "t" "n" 1 685 918 3 "adaptive" "002"
46 "8" 13 "G" "t" "n" 1 551 1398 3 "adaptive" "002"
46 "8" 14 "G" "t" "n" 1 435 644 3 "adaptive" "002"
46 "8" 15 "b" "v" "n" 1 668 708 3 "adaptive" "002"
46 "8" 16 "V" "g" "n" 1 785 1132 3 "adaptive" "002"
46 "8" 17 "v" "g" "n" 1 469 1331 3 "adaptive" "002"
46 "8" 18 "b" "b" "y" 1 702 858 3 "adaptive" "002"
46 "8" 19 "b" "v" "n" 1 819 1338 3 "adaptive" "002"
46 "8" 20 "t" "v" "n" 1 502 814 3 "adaptive" "002"
46 "9" 1 "t" NA "n" 1 868 687 4 "adaptive" "002"
46 "9" 2 "v" NA "n" 1 368 543 4 "adaptive" "002"
46 "9" 3 "B" NA "n" 1 752 1477 4 "adaptive" "002"
46 "9" 4 "b" NA "n" 1 468 1150 4 "adaptive" "002"
46 "9" 5 "T" "t" "y" 1 686 1317 4 "adaptive" "002"
46 "9" 6 "T" "v" "y" 0 585 975 4 "adaptive" "002"
46 "9" 7 "t" "b" "n" 1 801 1378 4 "adaptive" "002"
46 "9" 8 "G" "b" "n" 1 502 513 4 "adaptive" "002"
46 "9" 9 "t" "t" "y" 1 468 1304 4 "adaptive" "002"
46 "9" 10 "T" "t" "y" 1 552 602 4 "adaptive" "002"
46 "9" 11 "T" "t" "n" 0 836 701 4 "adaptive" "002"
46 "9" 12 "g" "g" "y" 1 652 855 4 "adaptive" "002"
46 "9" 13 "B" "t" "n" 1 569 1114 4 "adaptive" "002"
46 "9" 14 "v" "t" "y" 0 1069 1099 4 "adaptive" "002"
46 "9" 15 "v" "t" "n" 1 752 752 4 "adaptive" "002"
46 "9" 16 "T" "g" "y" 0 718 975 4 "adaptive" "002"
46 "9" 17 "b" "b" "n" 0 619 692 4 "adaptive" "002"
46 "9" 18 "G" "v" "n" 1 636 666 4 "adaptive" "002"
46 "9" 19 "g" "v" "n" 1 1136 532 4 "adaptive" "002"
46 "9" 20 "V" "t" "y" 0 802 1177 4 "adaptive" "002"
46 "10" 1 "t" NA "n" 1 468 1222 3 "adaptive" "002"
46 "10" 2 "t" NA "n" 1 485 1323 3 "adaptive" "002"
46 "10" 3 "t" NA "n" 1 518 903 3 "adaptive" "002"
46 "10" 4 "t" "t" "y" 1 452 1184 3 "adaptive" "002"
46 "10" 5 "b" "t" "n" 1 569 1033 3 "adaptive" "002"
46 "10" 6 "t" "t" "y" 1 585 564 3 "adaptive" "002"
46 "10" 7 "G" "t" "n" 1 569 787 3 "adaptive" "002"
46 "10" 8 "B" "b" "y" 1 819 558 3 "adaptive" "002"
46 "10" 9 "V" "t" "n" 1 1036 807 3 "adaptive" "002"
46 "10" 10 "t" "g" "y" 0 518 1337 3 "adaptive" "002"
46 "10" 11 "T" "b" "n" 1 668 953 3 "adaptive" "002"
46 "10" 12 "b" "v" "n" 1 701 539 3 "adaptive" "002"
46 "10" 13 "b" "t" "n" 1 518 1454 3 "adaptive" "002"
46 "10" 14 "v" "t" "n" 1 519 1030 3 "adaptive" "002"
46 "10" 15 "t" "b" "y" 0 952 1158 3 "adaptive" "002"
46 "10" 16 "V" "b" "y" 0 835 918 3 "adaptive" "002"
46 "10" 17 "B" "v" "y" 0 585 1044 3 "adaptive" "002"
46 "10" 18 "V" "t" "n" 1 535 608 3 "adaptive" "002"
46 "10" 19 "V" "v" "n" 0 1186 1142 3 "adaptive" "002"
46 "10" 20 "V" "b" "n" 1 769 887 3 "adaptive" "002"
46 "11" 1 "T" NA "n" 1 1319 1144 2 "two" "002"
46 "11" 2 "B" NA "n" 1 802 1450 2 "two" "002"
46 "11" 3 "t" "t" "y" 1 552 1005 2 "two" "002"
46 "11" 4 "B" "b" "y" 1 685 1315 2 "two" "002"
46 "11" 5 "B" "t" "n" 1 785 680 2 "two" "002"
46 "11" 6 "B" "b" "y" 1 1235 624 2 "two" "002"
46 "11" 7 "T" "b" "n" 1 669 692 2 "two" "002"
46 "11" 8 "g" "b" "n" 1 669 1096 2 "two" "002"
46 "11" 9 "t" "t" "y" 1 584 562 2 "two" "002"
46 "11" 10 "v" "g" "n" 1 619 1298 2 "two" "002"
46 "11" 11 "T" "t" "y" 1 385 823 2 "two" "002"
46 "11" 12 "t" "v" "n" 1 535 1008 2 "two" "002"
46 "11" 13 "B" "t" "n" 1 469 986 2 "two" "002"
46 "11" 14 "b" "t" "n" 1 836 1498 2 "two" "002"
46 "11" 15 "t" "b" "n" 1 569 1369 2 "two" "002"
46 "11" 16 "t" "b" "n" 1 836 1250 2 "two" "002"
46 "11" 17 "T" "t" "y" 1 685 768 2 "two" "002"
46 "11" 18 "v" "t" "n" 1 652 1214 2 "two" "002"
46 "11" 19 "G" "t" "n" 1 536 636 2 "two" "002"
46 "11" 20 "g" "v" "n" 1 602 953 2 "two" "002"
46 "12" 1 "T" NA "n" 1 569 1161 2 "two" "002"
46 "12" 2 "V" NA "n" 1 786 1075 2 "two" "002"
46 "12" 3 "B" "t" "n" 1 719 691 2 "two" "002"
46 "12" 4 "b" "v" "n" 1 485 992 2 "two" "002"
46 "12" 5 "v" "b" "n" 1 602 805 2 "two" "002"
46 "12" 6 "B" "b" "y" 1 802 726 2 "two" "002"
46 "12" 7 "b" "v" "n" 1 752 567 2 "two" "002"
46 "12" 8 "g" "b" "n" 1 718 799 2 "two" "002"
46 "12" 9 "b" "b" "y" 1 435 1353 2 "two" "002"
46 "12" 10 "v" "g" "n" 1 535 990 2 "two" "002"
46 "12" 11 "b" "b" "y" 1 669 735 2 "two" "002"
46 "12" 12 "g" "v" "n" 1 651 1222 2 "two" "002"
46 "12" 13 "b" "b" "y" 1 452 1067 2 "two" "002"
46 "12" 14 "g" "g" "y" 1 569 747 2 "two" "002"
46 "12" 15 "g" "b" "n" 1 902 1150 2 "two" "002"
46 "12" 16 "b" "g" "n" 1 1019 770 2 "two" "002"
46 "12" 17 "T" "g" "y" 0 669 1458 2 "two" "002"
46 "12" 18 "V" "b" "n" 1 734 974 2 "two" "002"
46 "12" 19 "b" "t" "n" 1 752 678 2 "two" "002"
46 "12" 20 "t" "v" "n" 1 635 1122 2 "two" "002"
46 "13" 1 "T" NA "n" 1 786 616 2 "two" "002"
46 "13" 2 "b" NA "n" 1 952 667 2 "two" "002"
46 "13" 3 "T" "t" "y" 1 869 1346 2 "two" "002"
46 "13" 4 "v" "b" "n" 1 485 1182 2 "two" "002"
46 "13" 5 "b" "t" "n" 1 468 1172 2 "two" "002"
46 "13" 6 "V" "v" "y" 1 468 1325 2 "two" "002"
46 "13" 7 "V" "b" "n" 1 485 621 2 "two" "002"
46 "13" 8 "t" "v" "n" 1 669 1007 2 "two" "002"
46 "13" 9 "b" "v" "n" 1 435 897 2 "two" "002"
46 "13" 10 "B" "t" "n" 1 467 1285 2 "two" "002"
46 "13" 11 "T" "b" "n" 1 535 1254 2 "two" "002"
46 "13" 12 "V" "b" "n" 1 552 1305 2 "two" "002"
46 "13" 13 "G" "t" "n" 1 418 1488 2 "two" "002"
46 "13" 14 "B" "v" "y" 0 351 534 2 "two" "002"
46 "13" 15 "t" "g" "n" 1 702 1399 2 "two" "002"
46 "13" 16 "V" "b" "y" 0 886 1468 2 "two" "002"
46 "13" 17 "t" "t" "n" 0 569 1174 2 "two" "002"
46 "13" 18 "b" "v" "y" 0 451 531 2 "two" "002"
46 "13" 19 "b" "t" "y" 0 817 962 2 "two" "002"
46 "13" 20 "b" "b" "y" 1 652 1073 2 "two" "002"
46 "14" 1 "V" NA "n" 1 802 650 2 "two" "002"
46 "14" 2 "G" NA "n" 1 501 1063 2 "two" "002"
46 "14" 3 "v" "v" "y" 1 484 890 2 "two" "002"
46 "14" 4 "V" "g" "n" 1 735 1417 2 "two" "002"
46 "14" 5 "v" "v" "y" 1 368 1429 2 "two" "002"
46 "14" 6 "b" "v" "n" 1 535 911 2 "two" "002"
46 "14" 7 "V" "v" "y" 1 635 1278 2 "two" "002"
46 "14" 8 "G" "b" "n" 1 502 1062 2 "two" "002"
46 "14" 9 "T" "v" "n" 1 468 506 2 "two" "002"
46 "14" 10 "T" "g" "n" 1 568 986 2 "two" "002"
46 "14" 11 "T" "t" "y" 1 351 809 2 "two" "002"
46 "14" 12 "T" "t" "n" 0 735 932 2 "two" "002"
46 "14" 13 "B" "t" "n" 1 819 1231 2 "two" "002"
46 "14" 14 "t" "t" "y" 1 468 1430 2 "two" "002"
46 "14" 15 "T" "b" "n" 1 468 1314 2 "two" "002"
46 "14" 16 "G" "t" "n" 1 752 733 2 "two" "002"
46 "14" 17 "v" "t" "n" 1 736 1043 2 "two" "002"
46 "14" 18 "T" "g" "n" 1 435 1310 2 "two" "002"
46 "14" 19 "b" "v" "n" 1 435 1039 2 "two" "002"
46 "14" 20 "b" "t" "n" 1 435 726 2 "two" "002"
46 "15" 1 "G" NA "n" 1 769 1362 2 "two" "002"
46 "15" 2 "T" NA "n" 1 385 1028 2 "two" "002"
46 "15" 3 "v" "g" "n" 1 569 1099 2 "two" "002"
46 "15" 4 "B" "t" "n" 1 519 1431 2 "two" "002"
46 "15" 5 "t" "v" "n" 1 467 1422 2 "two" "002"
46 "15" 6 "g" "b" "n" 1 518 1174 2 "two" "002"
46 "15" 7 "V" "t" "n" 1 585 1256 2 "two" "002"
46 "15" 8 "T" "g" "y" 0 584 1466 2 "two" "002"
46 "15" 9 "t" "v" "n" 1 1119 1290 2 "two" "002"
46 "15" 10 "b" "t" "n" 1 752 680 2 "two" "002"
46 "15" 11 "B" "t" "y" 0 903 973 2 "two" "002"
46 "15" 12 "t" "b" "y" 0 802 820 2 "two" "002"
46 "15" 13 "b" "b" "n" 0 701 960 2 "two" "002"
46 "15" 14 "G" "t" "n" 1 1053 598 2 "two" "002"
46 "15" 15 "t" "b" "y" 0 1186 1172 2 "two" "002"
46 "15" 16 "T" "g" "n" 1 435 832 2 "two" "002"
46 "15" 17 "g" "t" "y" 0 952 1318 2 "two" "002"
46 "15" 18 "b" "t" "n" 1 352 936 2 "two" "002"
46 "15" 19 "G" "g" "y" 1 585 1128 2 "two" "002"
46 "15" 20 "B" "b" "n" 0 335 1014 2 "two" "002"
46 "16" 1 "t" NA "y" 0 1002 936 1 "two" "002"
46 "16" 2 "b" "t" "n" 1 952 1169 1 "two" "002"
46 "16" 3 "V" "b" "n" 1 669 1142 1 "two" "002"
46 "16" 4 "V" "v" "y" 1 734 663 1 "two" "002"
46 "16" 5 "b" "v" "n" 1 518 686 1 "two" "002"
46 "16" 6 "T" "b" "n" 1 635 1312 1 "two" "002"
46 "16" 7 "B" "t" "y" 0 402 869 1 "two" "002"
46 "16" 8 "T" "b" "y" 0 768 658 1 "two" "002"
46 "16" 9 "B" "t" "y" 0 718 890 1 "two" "002"
46 "16" 10 "B" "b" "n" 0 885 618 1 "two" "002"
46 "16" 11 "g" "b" "n" 1 768 1140 1 "two" "002"
46 "16" 12 "G" "g" "y" 1 685 1047 1 "two" "002"
46 "16" 13 "B" "g" "n" 1 902 501 1 "two" "002"
46 "16" 14 "T" "b" "y" 0 602 1035 1 "two" "002"
46 "16" 15 "t" "t" "n" 0 936 567 1 "two" "002"
46 "16" 16 "T" "t" "y" 1 419 1184 1 "two" "002"
46 "16" 17 "V" "t" "n" 1 486 950 1 "two" "002"
46 "16" 18 "v" "v" "n" 0 485 618 1 "two" "002"
46 "16" 19 "g" "v" "n" 1 886 1247 1 "two" "002"
46 "16" 20 "V" "g" "y" 0 1169 711 1 "two" "002"
46 "17" 1 "t" NA "n" 1 702 681 1 "two" "002"
46 "17" 2 "T" "t" "y" 1 469 1272 1 "two" "002"
46 "17" 3 "v" "t" "n" 1 636 1254 1 "two" "002"
46 "17" 4 "b" "v" "n" 1 719 1488 1 "two" "002"
46 "17" 5 "T" "b" "n" 1 619 835 1 "two" "002"
46 "17" 6 "B" "t" "n" 1 719 1429 1 "two" "002"
46 "17" 7 "g" "b" "n" 1 519 737 1 "two" "002"
46 "17" 8 "T" "g" "n" 1 686 1075 1 "two" "002"
46 "17" 9 "b" "t" "n" 1 485 1046 1 "two" "002"
46 "17" 10 "v" "b" "n" 1 752 930 1 "two" "002"
46 "17" 11 "B" "v" "y" 0 969 799 1 "two" "002"
46 "17" 12 "t" "b" "n" 1 836 1346 1 "two" "002"
46 "17" 13 "T" "t" "y" 1 352 788 1 "two" "002"
46 "17" 14 "B" "t" "n" 1 568 676 1 "two" "002"
46 "17" 15 "V" "b" "n" 1 735 1072 1 "two" "002"
46 "17" 16 "v" "v" "y" 1 551 512 1 "two" "002"
46 "17" 17 "g" "v" "n" 1 735 575 1 "two" "002"
46 "17" 18 "B" "g" "n" 1 685 1439 1 "two" "002"
46 "17" 19 "B" "b" "y" 1 586 1467 1 "two" "002"
46 "17" 20 "t" "b" "n" 1 486 1021 1 "two" "002"
46 "18" 1 "g" NA "n" 1 619 1367 2 "two" "002"
46 "18" 2 "v" NA "n" 1 602 1333 2 "two" "002"
46 "18" 3 "G" "g" "y" 1 767 755 2 "two" "002"
46 "18" 4 "b" "v" "n" 1 452 811 2 "two" "002"
46 "18" 5 "g" "g" "y" 1 502 581 2 "two" "002"
46 "18" 6 "B" "b" "n" 0 502 877 2 "two" "002"
46 "18" 7 "B" "g" "n" 1 619 875 2 "two" "002"
46 "18" 8 "b" "b" "y" 1 435 1045 2 "two" "002"
46 "18" 9 "V" "b" "n" 1 419 1188 2 "two" "002"
46 "18" 10 "G" "b" "n" 1 417 1168 2 "two" "002"
46 "18" 11 "T" "v" "n" 1 768 589 2 "two" "002"
46 "18" 12 "b" "g" "n" 1 702 1317 2 "two" "002"
46 "18" 13 "B" "t" "n" 1 485 576 2 "two" "002"
46 "18" 14 "T" "b" "y" 0 652 775 2 "two" "002"
46 "18" 15 "G" "b" "n" 1 452 743 2 "two" "002"
46 "18" 16 "B" "t" "n" 1 552 928 2 "two" "002"
46 "18" 17 "B" "g" "n" 1 619 1126 2 "two" "002"
46 "18" 18 "v" "b" "n" 1 519 1370 2 "two" "002"
46 "18" 19 "T" "b" "n" 1 485 1201 2 "two" "002"
46 "18" 20 "G" "v" "y" 0 602 1396 2 "two" "002"
46 "19" 1 "g" NA "n" 1 685 700 2 "two" "002"
46 "19" 2 "G" NA "n" 1 519 1035 2 "two" "002"
46 "19" 3 "b" "g" "n" 1 736 1105 2 "two" "002"
46 "19" 4 "T" "g" "n" 1 752 750 2 "two" "002"
46 "19" 5 "T" "b" "n" 1 769 936 2 "two" "002"
46 "19" 6 "T" "t" "y" 1 334 605 2 "two" "002"
46 "19" 7 "v" "t" "n" 1 769 1204 2 "two" "002"
46 "19" 8 "v" "t" "n" 1 435 989 2 "two" "002"
46 "19" 9 "b" "v" "n" 1 502 800 2 "two" "002"
46 "19" 10 "v" "v" "y" 1 519 985 2 "two" "002"
46 "19" 11 "g" "b" "n" 1 569 1267 2 "two" "002"
46 "19" 12 "B" "v" "n" 1 552 1467 2 "two" "002"
46 "19" 13 "V" "g" "n" 1 435 968 2 "two" "002"
46 "19" 14 "v" "b" "n" 1 568 854 2 "two" "002"
46 "19" 15 "t" "v" "n" 1 636 1327 2 "two" "002"
46 "19" 16 "g" "v" "n" 1 919 1190 2 "two" "002"
46 "19" 17 "G" "t" "n" 1 619 1340 2 "two" "002"
46 "19" 18 "V" "g" "n" 1 619 1101 2 "two" "002"
46 "19" 19 "T" "g" "n" 1 619 1403 2 "two" "002"
46 "19" 20 "G" "v" "y" 0 452 1431 2 "two" "002"
46 "20" 1 "b" NA "n" 1 469 709 2 "two" "002"
46 "20" 2 "T" NA "n" 1 401 1355 2 "two" "002"
46 "20" 3 "G" "b" "n" 1 569 677 2 "two" "002"
46 "20" 4 "t" "t" "y" 1 902 744 2 "two" "002"
46 "20" 5 "b" "g" "y" 0 652 814 2 "two" "002"
46 "20" 6 "V" "t" "n" 1 519 1092 2 "two" "002"
46 "20" 7 "v" "b" "n" 1 769 1201 2 "two" "002"
46 "20" 8 "b" "v" "n" 1 502 1143 2 "two" "002"
46 "20" 9 "T" "v" "n" 1 617 1138 2 "two" "002"
46 "20" 10 "B" "b" "n" 0 667 632 2 "two" "002"
46 "20" 11 "g" "t" "n" 1 986 1452 2 "two" "002"
46 "20" 12 "V" "b" "y" 0 986 904 2 "two" "002"
46 "20" 13 "t" "g" "n" 1 569 1482 2 "two" "002"
46 "20" 14 "v" "v" "y" 1 301 1452 2 "two" "002"
46 "20" 15 "T" "t" "n" 0 802 863 2 "two" "002"
46 "20" 16 "B" "v" "y" 0 335 529 2 "two" "002"
46 "20" 17 "g" "t" "n" 1 635 1325 2 "two" "002"
46 "20" 18 "T" "b" "y" 0 901 916 2 "two" "002"
46 "20" 19 "b" "g" "n" 1 669 1023 2 "two" "002"
46 "20" 20 "b" "t" "n" 1 485 607 2 "two" "002"
47 "P" 1 "B" NA NA -1 NA 757 1 "P" "001"
47 "P" 2 "g" "b" "n" 1 585 1392 1 "P" "001"
47 "P" 3 "v" "g" "n" 1 602 733 1 "P" "001"
47 "P" 4 "T" "v" "n" 1 619 971 1 "P" "001"
47 "P" 5 "T" "t" "y" 1 819 1146 1 "P" "001"
47 "P" 6 "B" "t" "n" 1 952 1027 1 "P" "001"
47 "P" 7 "G" "b" "y" 0 969 1011 1 "P" "001"
47 "P" 8 "v" "g" "y" 0 802 1319 1 "P" "001"
47 "P" 9 "T" "v" "n" 1 769 603 1 "P" "001"
47 "P" 10 "v" "t" "y" 0 702 942 1 "P" "001"
47 "P" 11 "b" "v" "n" 1 352 1142 1 "P" "001"
47 "P" 12 "B" "b" "n" 0 735 1157 1 "P" "001"
47 "P" 13 "B" "b" "y" 1 551 885 1 "P" "001"
47 "P" 14 "t" "b" "y" 0 585 896 1 "P" "001"
47 "P" 15 "v" "t" "n" 1 502 970 1 "P" "001"
47 "P" 16 "T" "v" "y" 0 468 951 1 "P" "001"
47 "P" 17 "G" "t" "n" 1 218 1207 1 "P" "001"
47 "P" 18 "G" "g" "y" 1 619 1303 1 "P" "001"
47 "P" 19 "V" "g" "y" 0 635 1463 1 "P" "001"
47 "P" 20 "b" "v" "y" 0 485 616 1 "P" "001"
47 "P" 21 "G" "b" NA -1 NA 858 1 "P" "001"
47 "P" 22 "V" "g" "n" 1 1637 982 1 "P" "001"
47 "P" 23 "v" "v" "n" 0 435 513 1 "P" "001"
47 "P" 24 "B" "v" "n" 1 734 1021 1 "P" "001"
47 "P" 25 "t" "b" "y" 0 735 657 1 "P" "001"
47 "P" 26 "v" "t" "y" 0 869 722 1 "P" "001"
47 "P" 27 "V" "v" "n" 0 515 740 1 "P" "001"
47 "P" 28 "G" "v" "n" 1 435 902 1 "P" "001"
47 "P" 29 "v" "g" "n" 1 1236 602 1 "P" "001"
47 "P" 30 "b" "v" "n" 1 585 844 1 "P" "001"
47 "P" 31 "G" "b" "y" 0 919 507 1 "P" "001"
47 "P" 32 "g" "g" "n" 0 618 1031 1 "P" "001"
47 "P" 33 "T" "g" "n" 1 1152 1389 1 "P" "001"
47 "P" 34 "B" "t" "n" 1 435 936 1 "P" "001"
47 "P" 35 "v" "b" "n" 1 769 1139 1 "P" "001"
47 "P" 36 "b" "v" "y" 0 768 1388 1 "P" "001"
47 "P" 37 "g" "b" "n" 1 585 854 1 "P" "001"
47 "P" 38 "t" "g" "y" 0 802 919 1 "P" "001"
47 "P" 39 "v" "t" "y" 0 719 767 1 "P" "001"
47 "P" 40 "V" "v" "n" 0 285 1038 1 "P" "001"
47 "P" 41 "b" "v" "y" 0 514 764 1 "P" "001"
47 "P" 42 "b" "b" "n" 0 1253 977 1 "P" "001"
47 "P" 43 "b" "b" "n" 0 435 1054 1 "P" "001"
47 "P" 44 "T" "b" "y" 0 1469 1017 1 "P" "001"
47 "P" 45 "G" "t" "n" 1 569 1383 1 "P" "001"
47 "P" 46 "v" "g" "n" 1 335 713 1 "P" "001"
47 "P" 47 "V" "v" "y" 1 602 1306 1 "P" "001"
47 "P" 48 "V" "v" "y" 1 702 854 1 "P" "001"
47 "P" 49 "v" "v" "y" 1 402 881 1 "P" "001"
47 "P" 50 "B" "v" "n" 1 785 1204 1 "P" "001"
47 "P" 51 "t" "b" "y" 0 568 1460 1 "P" "001"
47 "P" 52 "b" "t" "n" 1 836 963 1 "P" "001"
47 "P" 53 "G" "b" "n" 1 551 697 1 "P" "001"
47 "P" 54 "t" "g" "n" 1 1052 1149 1 "P" "001"
47 "P" 55 "v" "t" "n" 1 469 596 1 "P" "001"
47 "P" 56 "v" "v" "y" 1 585 1085 1 "P" "001"
47 "P" 57 "G" "v" "n" 1 668 1253 1 "P" "001"
47 "P" 58 "V" "g" "y" 0 953 1007 1 "P" "001"
47 "P" 59 "v" "v" "n" 0 498 1013 1 "P" "001"
47 "P" 60 "v" "v" "n" 0 500 786 1 "P" "001"
47 "P" 61 "V" "v" "n" 0 836 1338 1 "P" "001"
47 "P" 62 "v" "v" "n" 0 552 1409 1 "P" "001"
47 "P" 63 "G" "v" "n" 1 702 789 1 "P" "001"
47 "P" 64 "T" "g" "n" 1 585 1445 1 "P" "001"
47 "P" 65 "G" "t" "n" 1 418 1384 1 "P" "001"
47 "P" 66 "v" "g" "n" 1 502 813 1 "P" "001"
47 "P" 67 "v" "v" "y" 1 402 1208 1 "P" "001"
47 "P" 68 "B" "v" "n" 1 385 1145 1 "P" "001"
47 "P" 69 "g" "b" "n" 1 368 589 1 "P" "001"
47 "P" 70 "g" "g" "y" 1 585 1175 1 "P" "001"
47 "P" 71 "G" "g" "y" 1 501 513 1 "P" "001"
47 "P" 72 "v" "g" "n" 1 586 1260 1 "P" "001"
47 "P" 73 "V" "v" "y" 1 585 724 1 "P" "001"
47 "P" 74 "t" "v" "y" 0 686 747 1 "P" "001"
47 "P" 75 "t" "t" "n" 0 500 534 1 "P" "001"
47 "P" 76 "V" "t" "y" 0 968 1321 1 "P" "001"
47 "P" 77 "T" "v" "n" 1 684 968 1 "P" "001"
47 "P" 78 "v" "t" "y" 0 835 1002 1 "P" "001"
47 "P" 79 "t" "v" "n" 1 685 852 1 "P" "001"
47 "P" 80 "t" "t" "n" 0 435 930 1 "P" "001"
47 "P" 81 "b" "t" "n" 1 986 1144 1 "P" "001"
47 "P" 82 "t" "b" "n" 1 535 1398 1 "P" "001"
47 "P" 83 "T" "t" "y" 1 485 903 1 "P" "001"
47 "P" 84 "g" "t" "n" 1 569 1373 1 "P" "001"
47 "P" 85 "T" "g" "n" 1 635 1100 1 "P" "001"
47 "P" 86 "v" "t" "n" 1 435 604 1 "P" "001"
47 "P" 87 "T" "v" "n" 1 736 936 1 "P" "001"
47 "P" 88 "V" "t" "n" 1 636 1069 1 "P" "001"
47 "P" 89 "B" "v" "n" 1 435 1173 1 "P" "001"
47 "P" 90 "G" "b" "n" 1 685 890 1 "P" "001"
47 "P" 91 "G" "g" "y" 1 435 1371 1 "P" "001"
47 "P" 92 "v" "g" "n" 1 469 1094 1 "P" "001"
47 "P" 93 "v" "v" "n" 0 452 1228 1 "P" "001"
47 "P" 94 "B" "v" "n" 1 851 1037 1 "P" "001"
47 "P" 95 "B" "b" "y" 1 519 929 1 "P" "001"
47 "P" 96 "b" "b" "y" 1 385 1353 1 "P" "001"
47 "P" 97 "g" "b" "n" 1 635 1382 1 "P" "001"
47 "P" 98 "V" "g" "n" 1 669 806 1 "P" "001"
47 "P" 99 "V" "v" "y" 1 586 1205 1 "P" "001"
47 "P" 100 "B" "v" "n" 1 1403 1483 1 "P" "001"
47 "1" 1 "t" NA NA 0 NA 1268 2 "adaptive" "001"
47 "1" 2 "T" NA "n" 1 499 688 2 "adaptive" "001"
47 "1" 3 "T" "t" "y" 1 919 706 2 "adaptive" "001"
47 "1" 4 "t" "t" "y" 1 668 1323 2 "adaptive" "001"
47 "1" 5 "g" "t" "n" 1 786 1498 2 "adaptive" "001"
47 "1" 6 "G" "t" "y" 0 1018 1034 2 "adaptive" "001"
47 "1" 7 "T" "g" "n" 1 786 866 2 "adaptive" "001"
47 "1" 8 "V" "g" "y" 0 786 760 2 "adaptive" "001"
47 "1" 9 "g" "t" "n" 1 585 808 2 "adaptive" "001"
47 "1" 10 "g" "v" "y" 0 1052 1346 2 "adaptive" "001"
47 "1" 11 "T" "g" "n" 1 969 877 2 "adaptive" "001"
47 "1" 12 "B" "g" "y" 0 820 612 2 "adaptive" "001"
47 "1" 13 "t" "t" "n" 0 535 861 2 "adaptive" "001"
47 "1" 14 "t" "b" NA 0 NA 1142 2 "adaptive" "001"
47 "1" 15 "V" "t" "n" 1 498 1012 2 "adaptive" "001"
47 "1" 16 "b" "t" "n" 1 685 697 2 "adaptive" "001"
47 "1" 17 "V" "v" "n" 0 1186 1227 2 "adaptive" "001"
47 "1" 18 "g" "b" "n" 1 1153 892 2 "adaptive" "001"
47 "1" 19 "g" "v" "n" 1 835 1179 2 "adaptive" "001"
47 "1" 20 "v" "g" "n" 1 1036 840 2 "adaptive" "001"
47 "2" 1 "t" NA "n" 1 1118 752 1 "adaptive" "001"
47 "2" 2 "b" "t" "n" 1 936 1149 1 "adaptive" "001"
47 "2" 3 "V" "b" "n" 1 686 543 1 "adaptive" "001"
47 "2" 4 "b" "v" "y" 0 1035 931 1 "adaptive" "001"
47 "2" 5 "v" "b" "n" 1 786 1033 1 "adaptive" "001"
47 "2" 6 "g" "v" "n" 1 953 571 1 "adaptive" "001"
47 "2" 7 "g" "g" "y" 1 903 1309 1 "adaptive" "001"
47 "2" 8 "b" "g" "n" 1 1036 1204 1 "adaptive" "001"
47 "2" 9 "V" "b" "n" 1 1520 763 1 "adaptive" "001"
47 "2" 10 "t" "v" "n" 1 1536 1108 1 "adaptive" "001"
47 "2" 11 "B" "t" "n" 1 1486 1141 1 "adaptive" "001"
47 "2" 12 "V" "b" "n" 1 919 863 1 "adaptive" "001"
47 "2" 13 "g" "v" "n" 1 886 743 1 "adaptive" "001"
47 "2" 14 "g" "g" "n" 0 1136 1395 1 "adaptive" "001"
47 "2" 15 "v" "g" "y" 0 669 1008 1 "adaptive" "001"
47 "2" 16 "G" "v" "n" 1 619 592 1 "adaptive" "001"
47 "2" 17 "V" "g" "y" 0 619 1427 1 "adaptive" "001"
47 "2" 18 "v" "v" "n" 0 851 1321 1 "adaptive" "001"
47 "2" 19 "t" "v" "n" 1 635 691 1 "adaptive" "001"
47 "2" 20 "g" "t" "n" 1 986 1416 1 "adaptive" "001"
47 "3" 1 "V" NA "n" 1 602 567 1 "adaptive" "001"
47 "3" 2 "g" "v" "n" 1 401 860 1 "adaptive" "001"
47 "3" 3 "B" "g" "n" 1 769 1437 1 "adaptive" "001"
47 "3" 4 "b" "b" "y" 1 551 965 1 "adaptive" "001"
47 "3" 5 "t" "b" "n" 1 669 1372 1 "adaptive" "001"
47 "3" 6 "v" "t" "n" 1 502 1108 1 "adaptive" "001"
47 "3" 7 "B" "v" "n" 1 853 1388 1 "adaptive" "001"
47 "3" 8 "v" "b" "n" 1 518 1029 1 "adaptive" "001"
47 "3" 9 "V" "v" "y" 1 536 1449 1 "adaptive" "001"
47 "3" 10 "T" "v" "n" 1 385 1499 1 "adaptive" "001"
47 "3" 11 "G" "t" "n" 1 419 745 1 "adaptive" "001"
47 "3" 12 "V" "g" "n" 1 601 1270 1 "adaptive" "001"
47 "3" 13 "g" "v" "y" 0 518 1103 1 "adaptive" "001"
47 "3" 14 "v" "g" "n" 1 485 813 1 "adaptive" "001"
47 "3" 15 "b" "v" "n" 1 852 730 1 "adaptive" "001"
47 "3" 16 "V" "b" "n" 1 769 1113 1 "adaptive" "001"
47 "3" 17 "V" "v" "y" 1 551 1201 1 "adaptive" "001"
47 "3" 18 "g" "v" "n" 1 652 1365 1 "adaptive" "001"
47 "3" 19 "V" "g" "n" 1 452 1229 1 "adaptive" "001"
47 "3" 20 "T" "v" "n" 1 585 1227 1 "adaptive" "001"
47 "4" 1 "g" NA "n" 1 1820 1256 2 "adaptive" "001"
47 "4" 2 "T" NA "n" 1 919 1034 2 "adaptive" "001"
47 "4" 3 "b" "g" "n" 1 652 750 2 "adaptive" "001"
47 "4" 4 "T" "t" "y" 1 886 976 2 "adaptive" "001"
47 "4" 5 "b" "b" "n" 0 919 1233 2 "adaptive" "001"
47 "4" 6 "G" "t" "n" 1 1053 1375 2 "adaptive" "001"
47 "4" 7 "v" "b" "n" 1 819 1213 2 "adaptive" "001"
47 "4" 8 "v" "g" "n" 1 786 1383 2 "adaptive" "001"
47 "4" 9 "B" "v" "n" 1 918 1445 2 "adaptive" "001"
47 "4" 10 "V" "v" "y" 1 902 720 2 "adaptive" "001"
47 "4" 11 "B" "b" "n" 0 1203 1429 2 "adaptive" "001"
47 "4" 12 "v" "v" "y" 1 1336 700 2 "adaptive" "001"
47 "4" 13 "G" "b" "n" 1 852 1309 2 "adaptive" "001"
47 "4" 14 "b" "v" "n" 1 1303 1448 2 "adaptive" "001"
47 "4" 15 "G" "g" "y" 1 1152 1285 2 "adaptive" "001"
47 "4" 16 "G" "b" "n" 1 836 792 2 "adaptive" "001"
47 "4" 17 "v" "g" "n" 1 1570 1191 2 "adaptive" "001"
47 "4" 18 "g" "g" "y" 1 1169 698 2 "adaptive" "001"
47 "4" 19 "G" "v" "y" 0 1153 793 2 "adaptive" "001"
47 "4" 20 "b" "g" "n" 1 736 683 2 "adaptive" "001"
47 "5" 1 "t" NA "n" 1 1787 666 2 "adaptive" "001"
47 "5" 2 "G" NA "n" 1 686 561 2 "adaptive" "001"
47 "5" 3 "V" "t" "n" 1 669 1045 2 "adaptive" "001"
47 "5" 4 "T" "g" "n" 1 852 1474 2 "adaptive" "001"
47 "5" 5 "g" "v" "y" 0 550 560 2 "adaptive" "001"
47 "5" 6 "t" "t" "n" 0 669 1110 2 "adaptive" "001"
47 "5" 7 "G" "g" "n" 0 719 1030 2 "adaptive" "001"
47 "5" 8 "V" "t" "y" 0 585 1337 2 "adaptive" "001"
47 "5" 9 "B" "g" "n" 1 235 1110 2 "adaptive" "001"
47 "5" 10 "G" "v" "n" 1 1003 1397 2 "adaptive" "001"
47 "5" 11 "t" "b" "n" 1 869 769 2 "adaptive" "001"
47 "5" 12 "G" "g" "y" 1 736 754 2 "adaptive" "001"
47 "5" 13 "b" "t" "n" 1 835 918 2 "adaptive" "001"
47 "5" 14 "B" "g" "n" 1 1102 1042 2 "adaptive" "001"
47 "5" 15 "T" "b" "y" 0 836 1088 2 "adaptive" "001"
47 "5" 16 "v" "b" "n" 1 552 1368 2 "adaptive" "001"
47 "5" 17 "b" "t" "n" 1 986 1214 2 "adaptive" "001"
47 "5" 18 "V" "v" "y" 1 418 1419 2 "adaptive" "001"
47 "5" 19 "v" "b" "n" 1 251 1342 2 "adaptive" "001"
47 "5" 20 "t" "v" "n" 1 652 1222 2 "adaptive" "001"
47 "6" 1 "V" NA NA 0 NA 1129 2 "adaptive" "001"
47 "6" 2 "T" NA "n" 1 585 935 2 "adaptive" "001"
47 "6" 3 "T" "v" "n" 1 836 745 2 "adaptive" "001"
47 "6" 4 "t" "t" "n" 0 819 1127 2 "adaptive" "001"
47 "6" 5 "V" "t" "n" 1 835 1271 2 "adaptive" "001"
47 "6" 6 "V" "t" "n" 1 1036 1192 2 "adaptive" "001"
47 "6" 7 "b" "v" "n" 1 569 1189 2 "adaptive" "001"
47 "6" 8 "V" "v" "y" 1 886 835 2 "adaptive" "001"
47 "6" 9 "B" "b" "y" 1 1219 1453 2 "adaptive" "001"
47 "6" 10 "V" "v" "n" 0 584 904 2 "adaptive" "001"
47 "6" 11 "g" "b" "n" 1 752 1032 2 "adaptive" "001"
47 "6" 12 "t" "v" "n" 1 836 1340 2 "adaptive" "001"
47 "6" 13 "T" "g" "n" 1 902 502 2 "adaptive" "001"
47 "6" 14 "V" "t" "n" 1 1453 631 2 "adaptive" "001"
47 "6" 15 "B" "t" "y" 0 819 1495 2 "adaptive" "001"
47 "6" 16 "V" "v" "n" 0 285 814 2 "adaptive" "001"
47 "6" 17 "T" "b" "n" 1 518 1444 2 "adaptive" "001"
47 "6" 18 "V" "v" "y" 1 701 1011 2 "adaptive" "001"
47 "6" 19 "v" "t" "y" 0 653 1008 2 "adaptive" "001"
47 "6" 20 "v" "v" "n" 0 535 1433 2 "adaptive" "001"
47 "7" 1 "G" NA "n" 1 1018 746 1 "adaptive" "001"
47 "7" 2 "T" "g" "n" 1 667 968 1 "adaptive" "001"
47 "7" 3 "g" "t" "n" 1 1102 1195 1 "adaptive" "001"
47 "7" 4 "V" "g" "n" 1 702 632 1 "adaptive" "001"
47 "7" 5 "T" "v" "n" 1 585 795 1 "adaptive" "001"
47 "7" 6 "T" "t" "n" 0 468 601 1 "adaptive" "001"
47 "7" 7 "G" "t" "n" 1 502 1282 1 "adaptive" "001"
47 "7" 8 "V" "g" "n" 1 769 1138 1 "adaptive" "001"
47 "7" 9 "B" "v" "n" 1 385 812 1 "adaptive" "001"
47 "7" 10 "g" "b" "n" 1 485 908 1 "adaptive" "001"
47 "7" 11 "t" "g" "n" 1 535 1333 1 "adaptive" "001"
47 "7" 12 "t" "t" "y" 1 351 1214 1 "adaptive" "001"
47 "7" 13 "g" "t" "n" 1 519 1196 1 "adaptive" "001"
47 "7" 14 "g" "g" "n" 0 451 1225 1 "adaptive" "001"
47 "7" 15 "V" "g" "n" 1 551 560 1 "adaptive" "001"
47 "7" 16 "G" "v" "n" 1 535 735 1 "adaptive" "001"
47 "7" 17 "g" "g" "n" 0 485 756 1 "adaptive" "001"
47 "7" 18 "B" "g" "n" 1 352 1349 1 "adaptive" "001"
47 "7" 19 "G" "b" "n" 1 652 1209 1 "adaptive" "001"
47 "7" 20 "B" "g" "n" 1 552 1085 1 "adaptive" "001"
47 "8" 1 "v" NA "n" 1 886 1061 1 "adaptive" "001"
47 "8" 2 "V" "v" "y" 1 719 1169 1 "adaptive" "001"
47 "8" 3 "g" "v" "n" 1 653 633 1 "adaptive" "001"
47 "8" 4 "v" "g" "y" 0 685 1099 1 "adaptive" "001"
47 "8" 5 "G" "v" "n" 1 669 1211 1 "adaptive" "001"
47 "8" 6 "G" "g" "y" 1 419 605 1 "adaptive" "001"
47 "8" 7 "b" "g" "n" 1 669 576 1 "adaptive" "001"
47 "8" 8 "v" "b" "n" 1 652 981 1 "adaptive" "001"
47 "8" 9 "V" "v" "y" 1 552 575 1 "adaptive" "001"
47 "8" 10 "G" "v" "n" 1 585 877 1 "adaptive" "001"
47 "8" 11 "V" "g" "n" 1 735 727 1 "adaptive" "001"
47 "8" 12 "G" "v" "n" 1 418 911 1 "adaptive" "001"
47 "8" 13 "T" "g" "n" 1 535 1293 1 "adaptive" "001"
47 "8" 14 "V" "t" "n" 1 469 758 1 "adaptive" "001"
47 "8" 15 "G" "v" "n" 1 568 1379 1 "adaptive" "001"
47 "8" 16 "T" "g" "n" 1 552 786 1 "adaptive" "001"
47 "8" 17 "g" "t" "y" 0 586 969 1 "adaptive" "001"
47 "8" 18 "v" "g" "n" 1 702 719 1 "adaptive" "001"
47 "8" 19 "T" "v" "n" 1 669 525 1 "adaptive" "001"
47 "8" 20 "B" "t" "n" 1 702 1493 1 "adaptive" "001"
47 "9" 1 "V" NA "n" 1 1303 828 2 "adaptive" "001"
47 "9" 2 "b" NA "n" 1 486 1000 2 "adaptive" "001"
47 "9" 3 "v" "v" "y" 1 819 1175 2 "adaptive" "001"
47 "9" 4 "G" "b" "n" 1 635 987 2 "adaptive" "001"
47 "9" 5 "v" "v" "y" 1 769 1094 2 "adaptive" "001"
47 "9" 6 "T" "g" "n" 1 552 555 2 "adaptive" "001"
47 "9" 7 "B" "v" "n" 1 1236 574 2 "adaptive" "001"
47 "9" 8 "v" "t" "n" 1 1253 819 2 "adaptive" "001"
47 "9" 9 "T" "b" "y" 0 802 1059 2 "adaptive" "001"
47 "9" 10 "b" "v" "n" 1 984 718 2 "adaptive" "001"
47 "9" 11 "T" "t" "y" 1 602 823 2 "adaptive" "001"
47 "9" 12 "G" "b" "n" 1 569 620 2 "adaptive" "001"
47 "9" 13 "T" "t" "y" 1 602 740 2 "adaptive" "001"
47 "9" 14 "T" "g" "n" 1 752 648 2 "adaptive" "001"
47 "9" 15 "g" "t" "y" 0 734 634 2 "adaptive" "001"
47 "9" 16 "T" "t" "n" 0 869 1261 2 "adaptive" "001"
47 "9" 17 "T" "g" "n" 1 719 1398 2 "adaptive" "001"
47 "9" 18 "g" "t" "y" 0 819 648 2 "adaptive" "001"
47 "9" 19 "v" "t" "n" 1 569 1321 2 "adaptive" "001"
47 "9" 20 "T" "g" "n" 1 668 508 2 "adaptive" "001"
47 "10" 1 "V" NA "n" 1 652 1024 2 "adaptive" "001"
47 "10" 2 "t" NA "n" 1 552 683 2 "adaptive" "001"
47 "10" 3 "t" "v" "y" 0 735 1194 2 "adaptive" "001"
47 "10" 4 "t" "t" "y" 1 769 547 2 "adaptive" "001"
47 "10" 5 "t" "t" "y" 1 569 988 2 "adaptive" "001"
47 "10" 6 "b" "t" "n" 1 585 776 2 "adaptive" "001"
47 "10" 7 "v" "t" "n" 1 986 1334 2 "adaptive" "001"
47 "10" 8 "b" "b" "y" 1 1169 1192 2 "adaptive" "001"
47 "10" 9 "b" "v" "n" 1 552 1257 2 "adaptive" "001"
47 "10" 10 "T" "b" "y" 0 585 1201 2 "adaptive" "001"
47 "10" 11 "v" "b" "n" 1 1370 1400 2 "adaptive" "001"
47 "10" 12 "V" "t" "n" 1 852 1033 2 "adaptive" "001"
47 "10" 13 "V" "v" "n" 0 752 721 2 "adaptive" "001"
47 "10" 14 "b" "v" "n" 1 786 830 2 "adaptive" "001"
47 "10" 15 "V" "v" "y" 1 969 1157 2 "adaptive" "001"
47 "10" 16 "v" "b" "n" 1 869 850 2 "adaptive" "001"
47 "10" 17 "b" "v" "n" 1 970 964 2 "adaptive" "001"
47 "10" 18 "B" "v" "n" 1 884 1386 2 "adaptive" "001"
47 "10" 19 "V" "b" "y" 0 702 1017 2 "adaptive" "001"
47 "10" 20 "g" "b" "n" 1 602 1499 2 "adaptive" "001"
47 "11" 1 "v" NA "n" 1 736 545 2 "two" "001"
47 "11" 2 "b" NA "n" 1 318 557 2 "two" "001"
47 "11" 3 "T" "v" "n" 1 1019 1178 2 "two" "001"
47 "11" 4 "T" "b" "n" 1 869 1212 2 "two" "001"
47 "11" 5 "g" "t" "n" 1 1053 1441 2 "two" "001"
47 "11" 6 "v" "t" "n" 1 769 1072 2 "two" "001"
47 "11" 7 "b" "g" "n" 1 1052 545 2 "two" "001"
47 "11" 8 "T" "v" "n" 1 1052 1271 2 "two" "001"
47 "11" 9 "G" "b" "y" 0 619 1106 2 "two" "001"
47 "11" 10 "V" "t" "n" 1 368 754 2 "two" "001"
47 "11" 11 "B" "g" "n" 1 785 763 2 "two" "001"
47 "11" 12 "G" "v" "n" 1 836 878 2 "two" "001"
47 "11" 13 "t" "b" "n" 1 802 839 2 "two" "001"
47 "11" 14 "T" "g" "n" 1 368 921 2 "two" "001"
47 "11" 15 "B" "t" "n" 1 601 1305 2 "two" "001"
47 "11" 16 "v" "t" "n" 1 736 764 2 "two" "001"
47 "11" 17 "G" "b" "n" 1 835 889 2 "two" "001"
47 "11" 18 "b" "v" "y" 0 1068 1192 2 "two" "001"
47 "11" 19 "v" "g" "n" 1 435 974 2 "two" "001"
47 "11" 20 "t" "b" "n" 1 668 553 2 "two" "001"
47 "12" 1 "t" NA "n" 1 668 774 2 "two" "001"
47 "12" 2 "t" NA "n" 1 500 1146 2 "two" "001"
47 "12" 3 "G" "t" "n" 1 652 808 2 "two" "001"
47 "12" 4 "v" "t" "n" 1 669 789 2 "two" "001"
47 "12" 5 "g" "g" "y" 1 852 1188 2 "two" "001"
47 "12" 6 "V" "v" "n" 0 502 751 2 "two" "001"
47 "12" 7 "B" "g" "y" 0 568 821 2 "two" "001"
47 "12" 8 "T" "v" "n" 1 435 1188 2 "two" "001"
47 "12" 9 "G" "b" "n" 1 434 550 2 "two" "001"
47 "12" 10 "v" "t" "n" 1 502 886 2 "two" "001"
47 "12" 11 "v" "g" "y" 0 302 668 2 "two" "001"
47 "12" 12 "v" "v" "y" 1 836 903 2 "two" "001"
47 "12" 13 "V" "v" "y" 1 669 672 2 "two" "001"
47 "12" 14 "B" "v" "n" 1 802 1308 2 "two" "001"
47 "12" 15 "g" "v" "y" 0 735 548 2 "two" "001"
47 "12" 16 "T" "b" "n" 1 485 762 2 "two" "001"
47 "12" 17 "T" "g" "n" 1 519 1014 2 "two" "001"
47 "12" 18 "V" "t" "n" 1 953 596 2 "two" "001"
47 "12" 19 "b" "t" "n" 1 885 1269 2 "two" "001"
47 "12" 20 "g" "v" "n" 1 969 1042 2 "two" "001"
47 "13" 1 "B" NA "n" 1 719 1344 2 "two" "001"
47 "13" 2 "T" NA "n" 1 568 1170 2 "two" "001"
47 "13" 3 "t" "b" "n" 1 535 997 2 "two" "001"
47 "13" 4 "G" "t" "n" 1 701 1447 2 "two" "001"
47 "13" 5 "t" "t" "y" 1 1153 588 2 "two" "001"
47 "13" 6 "G" "g" "n" 0 1003 1109 2 "two" "001"
47 "13" 7 "g" "t" "n" 1 1136 1484 2 "two" "001"
47 "13" 8 "g" "g" "y" 1 402 717 2 "two" "001"
47 "13" 9 "v" "g" "n" 1 836 1476 2 "two" "001"
47 "13" 10 "B" "g" "n" 1 1053 1101 2 "two" "001"
47 "13" 11 "T" "v" "n" 1 1136 1126 2 "two" "001"
47 "13" 12 "g" "b" "n" 1 919 1337 2 "two" "001"
47 "13" 13 "b" "t" "n" 1 1136 849 2 "two" "001"
47 "13" 14 "G" "g" "n" 0 719 747 2 "two" "001"
47 "13" 15 "b" "b" "y" 1 869 763 2 "two" "001"
47 "13" 16 "v" "g" "n" 1 1169 763 2 "two" "001"
47 "13" 17 "G" "b" "y" 0 1319 1283 2 "two" "001"
47 "13" 18 "b" "v" "n" 1 719 1346 2 "two" "001"
47 "13" 19 "T" "g" "n" 1 953 506 2 "two" "001"
47 "13" 20 "t" "b" "y" 0 851 1009 2 "two" "001"
47 "14" 1 "T" NA "n" 1 602 1107 2 "two" "001"
47 "14" 2 "t" NA "n" 1 735 1241 2 "two" "001"
47 "14" 3 "g" "t" "n" 1 1119 1484 2 "two" "001"
47 "14" 4 "T" "t" "y" 1 1402 890 2 "two" "001"
47 "14" 5 "B" "g" "n" 1 1253 816 2 "two" "001"
47 "14" 6 "V" "t" "n" 1 1069 1160 2 "two" "001"
47 "14" 7 "B" "b" "y" 1 685 1356 2 "two" "001"
47 "14" 8 "t" "v" "n" 1 669 1273 2 "two" "001"
47 "14" 9 "v" "b" "y" 0 1302 1497 2 "two" "001"
47 "14" 10 "b" "t" "n" 1 801 1278 2 "two" "001"
47 "14" 11 "V" "v" "y" 1 1235 996 2 "two" "001"
47 "14" 12 "t" "b" "n" 1 886 661 2 "two" "001"
47 "14" 13 "b" "v" "y" 0 1603 1294 2 "two" "001"
47 "14" 14 "V" "t" "n" 1 1086 1209 2 "two" "001"
47 "14" 15 "G" "b" "y" 0 968 1251 2 "two" "001"
47 "14" 16 "T" "v" "n" 1 802 1349 2 "two" "001"
47 "14" 17 "B" "g" "n" 1 936 682 2 "two" "001"
47 "14" 18 "t" "t" "n" 0 936 1188 2 "two" "001"
47 "14" 19 "b" "b" "y" 1 1069 1278 2 "two" "001"
47 "14" 20 "v" "t" "n" 1 736 1023 2 "two" "001"
47 "15" 1 "T" NA "n" 1 535 770 2 "two" "001"
47 "15" 2 "T" NA "n" 1 769 994 2 "two" "001"
47 "15" 3 "B" "t" "n" 1 552 1387 2 "two" "001"
47 "15" 4 "G" "t" "n" 1 851 940 2 "two" "001"
47 "15" 5 "v" "b" "n" 1 535 1001 2 "two" "001"
47 "15" 6 "v" "g" "n" 1 768 510 2 "two" "001"
47 "15" 7 "V" "v" "y" 1 952 743 2 "two" "001"
47 "15" 8 "T" "v" "n" 1 802 683 2 "two" "001"
47 "15" 9 "t" "v" "n" 1 1904 1348 2 "two" "001"
47 "15" 10 "t" "t" "y" 1 786 1304 2 "two" "001"
47 "15" 11 "v" "t" "n" 1 569 894 2 "two" "001"
47 "15" 12 "V" "t" "n" 1 1370 749 2 "two" "001"
47 "15" 13 "g" "v" "n" 1 1386 847 2 "two" "001"
47 "15" 14 "V" "v" "y" 1 1570 647 2 "two" "001"
47 "15" 15 "t" "g" "n" 1 1686 1492 2 "two" "001"
47 "15" 16 "g" "v" NA 0 NA 646 2 "two" "001"
47 "15" 17 "v" "t" "n" 1 498 1173 2 "two" "001"
47 "15" 18 "T" "g" "y" 0 885 1024 2 "two" "001"
47 "15" 19 "t" "v" "y" 0 886 1254 2 "two" "001"
47 "15" 20 "v" "t" "n" 1 936 1066 2 "two" "001"
47 "16" 1 "V" NA "n" 1 485 1132 2 "two" "001"
47 "16" 2 "g" NA "n" 1 669 1078 2 "two" "001"
47 "16" 3 "G" "v" "n" 1 953 1284 2 "two" "001"
47 "16" 4 "T" "g" "n" 1 969 714 2 "two" "001"
47 "16" 5 "T" "g" NA 0 NA 991 2 "two" "001"
47 "16" 6 "t" "t" "n" 0 498 1461 2 "two" "001"
47 "16" 7 "G" "t" "n" 1 869 909 2 "two" "001"
47 "16" 8 "b" "t" NA 0 NA 626 2 "two" "001"
47 "16" 9 "V" "g" "n" 1 498 1294 2 "two" "001"
47 "16" 10 "B" "b" "n" 0 468 1142 2 "two" "001"
47 "16" 11 "T" "v" "n" 1 535 1421 2 "two" "001"
47 "16" 12 "g" "b" "n" 1 435 881 2 "two" "001"
47 "16" 13 "V" "t" "n" 1 552 567 2 "two" "001"
47 "16" 14 "G" "g" "n" 0 452 901 2 "two" "001"
47 "16" 15 "B" "v" "y" 0 736 1101 2 "two" "001"
47 "16" 16 "v" "g" "n" 1 318 1110 2 "two" "001"
47 "16" 17 "T" "b" "n" 1 1136 1110 2 "two" "001"
47 "16" 18 "G" "v" "n" 1 1420 1192 2 "two" "001"
47 "16" 19 "B" "t" "n" 1 1486 1210 2 "two" "001"
47 "16" 20 "t" "g" "n" 1 852 847 2 "two" "001"
47 "17" 1 "g" NA "n" 1 1386 1305 1 "two" "001"
47 "17" 2 "B" "g" "n" 1 585 819 1 "two" "001"
47 "17" 3 "V" "b" "n" 1 619 1332 1 "two" "001"
47 "17" 4 "G" "v" "n" 1 619 996 1 "two" "001"
47 "17" 5 "V" "g" "n" 1 569 1429 1 "two" "001"
47 "17" 6 "t" "v" "n" 1 518 1036 1 "two" "001"
47 "17" 7 "v" "t" "n" 1 485 1495 1 "two" "001"
47 "17" 8 "b" "v" "n" 1 468 1318 1 "two" "001"
47 "17" 9 "T" "b" "n" 1 485 1454 1 "two" "001"
47 "17" 10 "b" "t" "n" 1 502 1286 1 "two" "001"
47 "17" 11 "v" "b" "n" 1 535 1219 1 "two" "001"
47 "17" 12 "V" "v" "y" 1 552 1315 1 "two" "001"
47 "17" 13 "g" "v" "n" 1 418 848 1 "two" "001"
47 "17" 14 "b" "g" "n" 1 801 1365 1 "two" "001"
47 "17" 15 "g" "b" "n" 1 451 803 1 "two" "001"
47 "17" 16 "V" "g" "n" 1 786 621 1 "two" "001"
47 "17" 17 "t" "v" "n" 1 752 1172 1 "two" "001"
47 "17" 18 "v" "t" "n" 1 552 600 1 "two" "001"
47 "17" 19 "v" "v" "y" 1 535 1414 1 "two" "001"
47 "17" 20 "t" "v" "n" 1 735 1174 1 "two" "001"
47 "18" 1 "b" NA "n" 1 785 937 2 "two" "001"
47 "18" 2 "B" NA "n" 1 602 1017 2 "two" "001"
47 "18" 3 "g" "b" "n" 1 619 784 2 "two" "001"
47 "18" 4 "B" "b" "y" 1 1269 1121 2 "two" "001"
47 "18" 5 "v" "g" "n" 1 735 1284 2 "two" "001"
47 "18" 6 "g" "b" "y" 0 1486 955 2 "two" "001"
47 "18" 7 "G" "v" "n" 1 419 1341 2 "two" "001"
47 "18" 8 "V" "g" "y" 0 951 1048 2 "two" "001"
47 "18" 9 "G" "g" "y" 1 719 662 2 "two" "001"
47 "18" 10 "t" "v" "n" 1 735 944 2 "two" "001"
47 "18" 11 "V" "g" "n" 1 736 1151 2 "two" "001"
47 "18" 12 "V" "t" "n" 1 1052 945 2 "two" "001"
47 "18" 13 "T" "v" "y" 0 685 1271 2 "two" "001"
47 "18" 14 "V" "v" "y" 1 903 1250 2 "two" "001"
47 "18" 15 "G" "t" "n" 1 885 877 2 "two" "001"
47 "18" 16 "G" "v" "n" 1 1019 1151 2 "two" "001"
47 "18" 17 "V" "g" "n" 1 936 767 2 "two" "001"
47 "18" 18 "B" "g" "n" 1 1136 591 2 "two" "001"
47 "18" 19 "g" "v" "n" 1 1754 581 2 "two" "001"
47 "18" 20 "b" "b" "y" 1 1620 731 2 "two" "001"
47 "19" 1 "V" NA "n" 1 569 666 2 "two" "001"
47 "19" 2 "b" NA "n" 1 334 1469 2 "two" "001"
47 "19" 3 "v" "v" "y" 1 919 1308 2 "two" "001"
47 "19" 4 "V" "b" "y" 0 769 1255 2 "two" "001"
47 "19" 5 "b" "v" "n" 1 1002 1193 2 "two" "001"
47 "19" 6 "b" "v" "n" 1 1036 1346 2 "two" "001"
47 "19" 7 "b" "b" "y" 1 1086 798 2 "two" "001"
47 "19" 8 "V" "b" "n" 1 869 882 2 "two" "001"
47 "19" 9 "T" "b" "n" 1 1085 501 2 "two" "001"
47 "19" 10 "G" "v" "n" 1 819 1138 2 "two" "001"
47 "19" 11 "b" "t" "n" 1 1370 1296 2 "two" "001"
47 "19" 12 "V" "g" "n" 1 901 991 2 "two" "001"
47 "19" 13 "V" "b" "y" 0 586 1379 2 "two" "001"
47 "19" 14 "t" "v" "n" 1 1202 1327 2 "two" "001"
47 "19" 15 "b" "v" "n" 1 734 955 2 "two" "001"
47 "19" 16 "v" "t" "n" 1 719 1371 2 "two" "001"
47 "19" 17 "T" "b" "n" 1 635 1458 2 "two" "001"
47 "19" 18 "G" "v" "n" 1 535 543 2 "two" "001"
47 "19" 19 "v" "t" "n" 1 1036 1082 2 "two" "001"
47 "19" 20 "T" "g" "y" 0 402 721 2 "two" "001"
47 "20" 1 "v" NA "n" 1 802 512 2 "two" "001"
47 "20" 2 "g" NA "n" 1 418 775 2 "two" "001"
47 "20" 3 "g" "v" "n" 1 335 759 2 "two" "001"
47 "20" 4 "g" "g" "y" 1 919 1134 2 "two" "001"
47 "20" 5 "t" "g" NA 0 NA 877 2 "two" "001"
47 "20" 6 "v" "g" "n" 1 498 1394 2 "two" "001"
47 "20" 7 "T" "t" "n" 0 952 873 2 "two" "001"
47 "20" 8 "b" "v" "n" 1 669 1498 2 "two" "001"
47 "20" 9 "G" "t" "n" 1 618 558 2 "two" "001"
47 "20" 10 "t" "b" "n" 1 1152 974 2 "two" "001"
47 "20" 11 "T" "g" "n" 1 1103 1496 2 "two" "001"
47 "20" 12 "b" "t" "n" 1 902 844 2 "two" "001"
47 "20" 13 "v" "t" "n" 1 752 822 2 "two" "001"
47 "20" 14 "G" "b" "n" 1 635 661 2 "two" "001"
47 "20" 15 "b" "v" "n" 1 635 956 2 "two" "001"
47 "20" 16 "B" "g" "n" 1 869 754 2 "two" "001"
47 "20" 17 "t" "b" "n" 1 952 1054 2 "two" "001"
47 "20" 18 "v" "b" "n" 1 719 1053 2 "two" "001"
47 "20" 19 "b" "t" "n" 1 635 1405 2 "two" "001"
47 "20" 20 "v" "v" "y" 1 1069 925 2 "two" "001"
47 "P" 1 "T" NA "n" 1 1319 503 1 "P" "002"
47 "P" 2 "G" "t" "n" 1 519 778 1 "P" "002"
47 "P" 3 "B" "g" "n" 1 435 1277 1 "P" "002"
47 "P" 4 "G" "b" "n" 1 466 649 1 "P" "002"
47 "P" 5 "V" "g" "n" 1 485 866 1 "P" "002"
47 "P" 6 "V" "v" "y" 1 519 1417 1 "P" "002"
47 "P" 7 "G" "v" "n" 1 452 869 1 "P" "002"
47 "P" 8 "V" "g" "n" 1 451 757 1 "P" "002"
47 "P" 9 "V" "v" "y" 1 402 1032 1 "P" "002"
47 "P" 10 "t" "v" "n" 1 986 1368 1 "P" "002"
47 "P" 11 "b" "t" "n" 1 469 759 1 "P" "002"
47 "P" 12 "b" "b" "y" 1 619 709 1 "P" "002"
47 "P" 13 "b" "b" "y" 1 685 523 1 "P" "002"
47 "P" 14 "g" "b" "n" 1 502 631 1 "P" "002"
47 "P" 15 "G" "g" "y" 1 619 1237 1 "P" "002"
47 "P" 16 "g" "g" "y" 1 569 1119 1 "P" "002"
47 "P" 17 "v" "g" "n" 1 552 619 1 "P" "002"
47 "P" 18 "t" "v" "n" 1 769 755 1 "P" "002"
47 "P" 19 "t" "t" "y" 1 452 1155 1 "P" "002"
47 "P" 20 "T" "t" "y" 1 519 1049 1 "P" "002"
47 "1" 1 "V" NA "n" 1 652 1254 2 "adaptive" "002"
47 "1" 2 "v" NA "n" 1 452 1280 2 "adaptive" "002"
47 "1" 3 "g" "v" "n" 1 802 885 2 "adaptive" "002"
47 "1" 4 "G" "v" "n" 1 835 967 2 "adaptive" "002"
47 "1" 5 "T" "g" "n" 1 652 703 2 "adaptive" "002"
47 "1" 6 "T" "g" "n" 1 952 1090 2 "adaptive" "002"
47 "1" 7 "g" "t" "n" 1 502 741 2 "adaptive" "002"
47 "1" 8 "b" "t" "n" 1 719 752 2 "adaptive" "002"
47 "1" 9 "G" "g" "n" 0 801 1339 2 "adaptive" "002"
47 "1" 10 "V" "b" "n" 1 552 1427 2 "adaptive" "002"
47 "1" 11 "b" "g" "n" 1 552 1454 2 "adaptive" "002"
47 "1" 12 "G" "v" "n" 1 1019 706 2 "adaptive" "002"
47 "1" 13 "V" "b" "y" 0 886 1263 2 "adaptive" "002"
47 "1" 14 "B" "g" "n" 1 852 874 2 "adaptive" "002"
47 "1" 15 "T" "v" "n" 1 1002 1400 2 "adaptive" "002"
47 "1" 16 "B" "b" "n" 0 1002 622 2 "adaptive" "002"
47 "1" 17 "V" "t" "n" 1 1002 523 2 "adaptive" "002"
47 "1" 18 "V" "b" "y" 0 585 711 2 "adaptive" "002"
47 "1" 19 "b" "v" "n" 1 702 678 2 "adaptive" "002"
47 "1" 20 "G" "v" "y" 0 1169 1481 2 "adaptive" "002"
47 "2" 1 "G" NA "n" 1 535 690 2 "adaptive" "002"
47 "2" 2 "B" NA "n" 1 418 1019 2 "adaptive" "002"
47 "2" 3 "v" "g" "n" 1 702 1133 2 "adaptive" "002"
47 "2" 4 "B" "b" "y" 1 869 1308 2 "adaptive" "002"
47 "2" 5 "B" "v" "n" 1 1353 880 2 "adaptive" "002"
47 "2" 6 "B" "b" "y" 1 1002 550 2 "adaptive" "002"
47 "2" 7 "t" "b" "n" 1 902 1031 2 "adaptive" "002"
47 "2" 8 "T" "b" "n" 1 1086 636 2 "adaptive" "002"
47 "2" 9 "g" "t" "n" 1 802 847 2 "adaptive" "002"
47 "2" 10 "v" "t" "n" 1 1002 1153 2 "adaptive" "002"
47 "2" 11 "G" "g" "y" 1 1185 600 2 "adaptive" "002"
47 "2" 12 "g" "v" "n" 1 969 1466 2 "adaptive" "002"
47 "2" 13 "T" "g" "n" 1 903 861 2 "adaptive" "002"
47 "2" 14 "b" "g" "n" 1 752 1401 2 "adaptive" "002"
47 "2" 15 "b" "t" "n" 1 752 1110 2 "adaptive" "002"
47 "2" 16 "G" "b" "n" 1 1168 927 2 "adaptive" "002"
47 "2" 17 "t" "b" "n" 1 769 1422 2 "adaptive" "002"
47 "2" 18 "v" "g" "n" 1 769 1037 2 "adaptive" "002"
47 "2" 19 "g" "t" "n" 1 1036 610 2 "adaptive" "002"
47 "2" 20 "V" "v" "n" 0 1003 1209 2 "adaptive" "002"
47 "3" 1 "t" NA "n" 1 935 1029 3 "adaptive" "002"
47 "3" 2 "T" NA "n" 1 285 640 3 "adaptive" "002"
47 "3" 3 "b" NA "n" 1 451 1269 3 "adaptive" "002"
47 "3" 4 "v" "t" "n" 1 485 1098 3 "adaptive" "002"
47 "3" 5 "T" "t" "y" 1 568 877 3 "adaptive" "002"
47 "3" 6 "V" "b" "y" 0 1086 745 3 "adaptive" "002"
47 "3" 7 "T" "v" "n" 1 752 862 3 "adaptive" "002"
47 "3" 8 "G" "t" "n" 1 652 575 3 "adaptive" "002"
47 "3" 9 "g" "v" "n" 1 736 1352 3 "adaptive" "002"
47 "3" 10 "t" "t" "n" 0 485 1001 3 "adaptive" "002"
47 "3" 11 "t" "g" "n" 1 1068 1174 3 "adaptive" "002"
47 "3" 12 "G" "g" "n" 0 885 1036 3 "adaptive" "002"
47 "3" 13 "V" "t" "n" 1 969 833 3 "adaptive" "002"
47 "3" 14 "T" "t" "y" 1 1236 1170 3 "adaptive" "002"
47 "3" 15 "B" "g" "n" 1 752 1144 3 "adaptive" "002"
47 "3" 16 "b" "v" "n" 1 769 1223 3 "adaptive" "002"
47 "3" 17 "B" "t" "n" 1 585 1434 3 "adaptive" "002"
47 "3" 18 "v" "b" "n" 1 552 640 3 "adaptive" "002"
47 "3" 19 "t" "b" "n" 1 785 617 3 "adaptive" "002"
47 "3" 20 "g" "b" "n" 1 819 1307 3 "adaptive" "002"
47 "4" 1 "B" NA "n" 1 752 1065 3 "adaptive" "002"
47 "4" 2 "T" NA "n" 1 384 737 3 "adaptive" "002"
47 "4" 3 "T" NA "n" 1 568 1034 3 "adaptive" "002"
47 "4" 4 "B" "b" "n" 0 635 1177 3 "adaptive" "002"
47 "4" 5 "T" "t" "n" 0 819 670 3 "adaptive" "002"
47 "4" 6 "v" "t" "n" 1 669 817 3 "adaptive" "002"
47 "4" 7 "G" "b" "n" 1 986 522 3 "adaptive" "002"
47 "4" 8 "b" "t" "n" 1 786 741 3 "adaptive" "002"
47 "4" 9 "v" "v" "y" 1 535 1474 3 "adaptive" "002"
47 "4" 10 "t" "g" "n" 1 335 641 3 "adaptive" "002"
47 "4" 11 "b" "b" "y" 1 986 1340 3 "adaptive" "002"
47 "4" 12 "V" "v" "y" 1 985 1492 3 "adaptive" "002"
47 "4" 13 "G" "t" "n" 1 719 691 3 "adaptive" "002"
47 "4" 14 "V" "b" "n" 1 902 1142 3 "adaptive" "002"
47 "4" 15 "b" "v" "y" 0 335 703 3 "adaptive" "002"
47 "4" 16 "g" "g" "n" 0 552 1087 3 "adaptive" "002"
47 "4" 17 "G" "v" "n" 1 301 989 3 "adaptive" "002"
47 "4" 18 "T" "b" "n" 1 802 1478 3 "adaptive" "002"
47 "4" 19 "T" "g" "n" 1 736 790 3 "adaptive" "002"
47 "4" 20 "T" "g" "y" 0 1486 858 3 "adaptive" "002"
47 "5" 1 "v" NA "n" 1 853 554 3 "adaptive" "002"
47 "5" 2 "t" NA "n" 1 519 1306 3 "adaptive" "002"
47 "5" 3 "G" NA "n" 1 686 1267 3 "adaptive" "002"
47 "5" 4 "t" "v" "n" 1 535 777 3 "adaptive" "002"
47 "5" 5 "g" "t" "y" 0 1370 1491 3 "adaptive" "002"
47 "5" 6 "v" "g" "n" 1 1420 891 3 "adaptive" "002"
47 "5" 7 "v" "t" "y" 0 1319 625 3 "adaptive" "002"
47 "5" 8 "t" "g" "n" 1 936 1137 3 "adaptive" "002"
47 "5" 9 "b" "v" "n" 1 886 1250 3 "adaptive" "002"
47 "5" 10 "T" "v" "n" 1 1186 1309 3 "adaptive" "002"
47 "5" 11 "g" "t" "n" 1 635 1258 3 "adaptive" "002"
47 "5" 12 "T" "b" "y" 0 819 593 3 "adaptive" "002"
47 "5" 13 "v" "t" "n" 1 1219 1481 3 "adaptive" "002"
47 "5" 14 "g" "g" "y" 1 903 525 3 "adaptive" "002"
47 "5" 15 "V" "t" "n" 1 1219 739 3 "adaptive" "002"
47 "5" 16 "V" "v" "n" 0 1052 933 3 "adaptive" "002"
47 "5" 17 "t" "g" "n" 1 953 806 3 "adaptive" "002"
47 "5" 18 "V" "v" "y" 1 1120 846 3 "adaptive" "002"
47 "5" 19 "V" "v" "y" 1 986 1072 3 "adaptive" "002"
47 "5" 20 "b" "t" "y" 0 1603 737 3 "adaptive" "002"
47 "6" 1 "V" NA "n" 1 652 1121 3 "adaptive" "002"
47 "6" 2 "g" NA "n" 1 385 681 3 "adaptive" "002"
47 "6" 3 "b" NA "n" 1 819 1213 3 "adaptive" "002"
47 "6" 4 "T" "v" "n" 1 568 538 3 "adaptive" "002"
47 "6" 5 "B" "g" "n" 1 702 903 3 "adaptive" "002"
47 "6" 6 "b" "b" "y" 1 886 553 3 "adaptive" "002"
47 "6" 7 "g" "t" "n" 1 1236 763 3 "adaptive" "002"
47 "6" 8 "B" "b" "n" 0 1252 616 3 "adaptive" "002"
47 "6" 9 "b" "b" "n" 0 1136 634 3 "adaptive" "002"
47 "6" 10 "v" "g" "n" 1 1136 555 3 "adaptive" "002"
47 "6" 11 "b" "b" "y" 1 1870 1262 3 "adaptive" "002"
47 "6" 12 "G" "b" "n" 1 1286 927 3 "adaptive" "002"
47 "6" 13 "b" "v" "y" 0 1436 572 3 "adaptive" "002"
47 "6" 14 "G" "b" "n" 1 1702 532 3 "adaptive" "002"
47 "6" 15 "t" "g" "n" 1 1620 674 3 "adaptive" "002"
47 "6" 16 "g" "b" "y" 0 1453 957 3 "adaptive" "002"
47 "6" 17 "B" "g" "n" 1 1002 1156 3 "adaptive" "002"
47 "6" 18 "g" "t" "y" 0 852 1099 3 "adaptive" "002"
47 "6" 19 "b" "g" "n" 1 802 1353 3 "adaptive" "002"
47 "6" 20 "t" "b" "y" 0 1720 772 3 "adaptive" "002"
47 "7" 1 "B" NA "n" 1 936 937 2 "adaptive" "002"
47 "7" 2 "t" NA "n" 1 518 1409 2 "adaptive" "002"
47 "7" 3 "b" "b" "y" 1 619 786 2 "adaptive" "002"
47 "7" 4 "v" "t" "n" 1 736 1006 2 "adaptive" "002"
47 "7" 5 "t" "b" "n" 1 902 612 2 "adaptive" "002"
47 "7" 6 "G" "v" "n" 1 836 778 2 "adaptive" "002"
47 "7" 7 "b" "t" "n" 1 752 853 2 "adaptive" "002"
47 "7" 8 "G" "g" "y" 1 535 1381 2 "adaptive" "002"
47 "7" 9 "g" "b" "n" 1 852 992 2 "adaptive" "002"
47 "7" 10 "V" "g" "n" 1 585 589 2 "adaptive" "002"
47 "7" 11 "B" "g" "n" 1 1236 1188 2 "adaptive" "002"
47 "7" 12 "v" "v" "y" 1 552 721 2 "adaptive" "002"
47 "7" 13 "V" "b" "n" 1 1453 589 2 "adaptive" "002"
47 "7" 14 "B" "v" "y" 0 601 1273 2 "adaptive" "002"
47 "7" 15 "T" "v" "n" 1 669 1450 2 "adaptive" "002"
47 "7" 16 "t" "b" "n" 1 819 1318 2 "adaptive" "002"
47 "7" 17 "G" "t" "n" 1 836 840 2 "adaptive" "002"
47 "7" 18 "G" "t" "n" 1 685 1239 2 "adaptive" "002"
47 "7" 19 "v" "g" "n" 1 1069 1335 2 "adaptive" "002"
47 "7" 20 "T" "g" "n" 1 852 501 2 "adaptive" "002"
47 "8" 1 "b" NA "n" 1 618 638 3 "adaptive" "002"
47 "8" 2 "V" NA "n" 1 335 1159 3 "adaptive" "002"
47 "8" 3 "v" NA "n" 1 452 608 3 "adaptive" "002"
47 "8" 4 "T" "b" "n" 1 735 1073 3 "adaptive" "002"
47 "8" 5 "v" "v" "n" 0 851 521 3 "adaptive" "002"
47 "8" 6 "b" "v" "n" 1 685 893 3 "adaptive" "002"
47 "8" 7 "b" "t" "n" 1 920 573 3 "adaptive" "002"
47 "8" 8 "g" "v" "n" 1 868 1418 3 "adaptive" "002"
47 "8" 9 "B" "b" "n" 0 903 597 3 "adaptive" "002"
47 "8" 10 "b" "b" "y" 1 801 706 3 "adaptive" "002"
47 "8" 11 "T" "g" "n" 1 919 831 3 "adaptive" "002"
47 "8" 12 "v" "b" "n" 1 585 923 3 "adaptive" "002"
47 "8" 13 "b" "b" "y" 1 852 671 3 "adaptive" "002"
47 "8" 14 "B" "t" "n" 1 785 1231 3 "adaptive" "002"
47 "8" 15 "G" "v" "n" 1 435 1144 3 "adaptive" "002"
47 "8" 16 "B" "b" "n" 0 819 1165 3 "adaptive" "002"
47 "8" 17 "g" "b" "y" 0 519 768 3 "adaptive" "002"
47 "8" 18 "b" "g" "n" 1 569 648 3 "adaptive" "002"
47 "8" 19 "B" "b" "y" 1 535 1066 3 "adaptive" "002"
47 "8" 20 "G" "g" "y" 1 1152 720 3 "adaptive" "002"
47 "9" 1 "g" NA "n" 1 969 919 3 "adaptive" "002"
47 "9" 2 "t" NA "n" 1 367 1019 3 "adaptive" "002"
47 "9" 3 "V" NA "n" 1 585 1315 3 "adaptive" "002"
47 "9" 4 "b" "g" "n" 1 1235 534 3 "adaptive" "002"
47 "9" 5 "B" "t" "n" 1 1469 1317 3 "adaptive" "002"
47 "9" 6 "G" "v" "n" 1 1252 778 3 "adaptive" "002"
47 "9" 7 "V" "b" "n" 1 1770 920 3 "adaptive" "002"
47 "9" 8 "b" "b" "y" 1 602 1301 3 "adaptive" "002"
47 "9" 9 "V" "g" "n" 1 935 1148 3 "adaptive" "002"
47 "9" 10 "g" "v" "n" 1 752 1455 3 "adaptive" "002"
47 "9" 11 "b" "b" "n" 0 719 645 3 "adaptive" "002"
47 "9" 12 "B" "v" "n" 1 719 1146 3 "adaptive" "002"
47 "9" 13 "G" "g" "y" 1 1052 1404 3 "adaptive" "002"
47 "9" 14 "V" "b" "n" 1 1036 587 3 "adaptive" "002"
47 "9" 15 "B" "b" "y" 1 885 1409 3 "adaptive" "002"
47 "9" 16 "B" "g" "y" 0 819 1152 3 "adaptive" "002"
47 "9" 17 "v" "v" "y" 1 1470 1457 3 "adaptive" "002"
47 "9" 18 "v" "b" "n" 1 352 626 3 "adaptive" "002"
47 "9" 19 "G" "b" "y" 0 1152 917 3 "adaptive" "002"
47 "9" 20 "t" "v" "n" 1 886 1334 3 "adaptive" "002"
47 "10" 1 "t" NA "n" 1 867 772 3 "adaptive" "002"
47 "10" 2 "G" NA "n" 1 652 940 3 "adaptive" "002"
47 "10" 3 "V" NA "n" 1 702 1103 3 "adaptive" "002"
47 "10" 4 "V" "t" "n" 1 752 1360 3 "adaptive" "002"
47 "10" 5 "V" "g" "n" 1 1086 1013 3 "adaptive" "002"
47 "10" 6 "t" "v" "n" 1 1069 773 3 "adaptive" "002"
47 "10" 7 "T" "v" "n" 1 869 686 3 "adaptive" "002"
47 "10" 8 "t" "v" "n" 1 1453 626 3 "adaptive" "002"
47 "10" 9 "v" "t" "n" 1 985 998 3 "adaptive" "002"
47 "10" 10 "g" "t" "n" 1 952 1235 3 "adaptive" "002"
47 "10" 11 "g" "t" "n" 1 1269 1072 3 "adaptive" "002"
47 "10" 12 "V" "v" "y" 1 852 1218 3 "adaptive" "002"
47 "10" 13 "V" "g" "n" 1 869 1243 3 "adaptive" "002"
47 "10" 14 "b" "g" "n" 1 636 1173 3 "adaptive" "002"
47 "10" 15 "g" "v" "n" 1 751 1379 3 "adaptive" "002"
47 "10" 16 "B" "v" "n" 1 1135 747 3 "adaptive" "002"
47 "10" 17 "t" "b" "n" 1 1186 1051 3 "adaptive" "002"
47 "10" 18 "B" "g" "y" 0 1420 1259 3 "adaptive" "002"
47 "10" 19 "V" "b" "n" 1 618 908 3 "adaptive" "002"
47 "10" 20 "T" "t" "n" 0 769 675 3 "adaptive" "002"
47 "11" 1 "B" NA "n" 1 869 897 2 "two" "002"
47 "11" 2 "T" NA "n" 1 368 1423 2 "two" "002"
47 "11" 3 "g" "b" "n" 1 685 855 2 "two" "002"
47 "11" 4 "g" "t" "n" 1 669 867 2 "two" "002"
47 "11" 5 "T" "g" "n" 1 919 1186 2 "two" "002"
47 "11" 6 "T" "g" "n" 1 1237 625 2 "two" "002"
47 "11" 7 "v" "t" "n" 1 801 1188 2 "two" "002"
47 "11" 8 "t" "t" "y" 1 969 618 2 "two" "002"
47 "11" 9 "g" "v" "n" 1 1486 1104 2 "two" "002"
47 "11" 10 "b" "t" "n" 1 802 561 2 "two" "002"
47 "11" 11 "T" "g" "n" 1 986 622 2 "two" "002"
47 "11" 12 "T" "b" "n" 1 752 767 2 "two" "002"
47 "11" 13 "v" "t" "n" 1 552 542 2 "two" "002"
47 "11" 14 "B" "t" "n" 1 835 1191 2 "two" "002"
47 "11" 15 "t" "v" "n" 1 1303 1158 2 "two" "002"
47 "11" 16 "V" "b" "y" 0 819 1300 2 "two" "002"
47 "11" 17 "t" "t" "n" 0 635 920 2 "two" "002"
47 "11" 18 "V" "v" "y" 1 819 1230 2 "two" "002"
47 "11" 19 "v" "t" "n" 1 1069 968 2 "two" "002"
47 "11" 20 "t" "v" "n" 1 1086 810 2 "two" "002"
47 "12" 1 "G" NA "n" 1 602 985 2 "two" "002"
47 "12" 2 "T" NA "n" 1 285 668 2 "two" "002"
47 "12" 3 "V" "g" "n" 1 602 889 2 "two" "002"
47 "12" 4 "G" "t" "n" 1 668 1322 2 "two" "002"
47 "12" 5 "g" "v" "n" 1 519 649 2 "two" "002"
47 "12" 6 "v" "g" "n" 1 935 1359 2 "two" "002"
47 "12" 7 "T" "g" "n" 1 802 1243 2 "two" "002"
47 "12" 8 "G" "v" "n" 1 1052 1470 2 "two" "002"
47 "12" 9 "b" "t" "n" 1 736 1460 2 "two" "002"
47 "12" 10 "g" "g" "y" 1 802 596 2 "two" "002"
47 "12" 11 "G" "b" "n" 1 819 1213 2 "two" "002"
47 "12" 12 "v" "g" "n" 1 1103 925 2 "two" "002"
47 "12" 13 "T" "g" "n" 1 969 1378 2 "two" "002"
47 "12" 14 "G" "v" "y" 0 836 683 2 "two" "002"
47 "12" 15 "V" "t" "n" 1 836 1368 2 "two" "002"
47 "12" 16 "G" "g" "n" 0 600 1472 2 "two" "002"
47 "12" 17 "t" "v" "n" 1 519 510 2 "two" "002"
47 "12" 18 "V" "g" "n" 1 1019 1440 2 "two" "002"
47 "12" 19 "B" "t" "n" 1 602 695 2 "two" "002"
47 "12" 20 "v" "v" "y" 1 869 571 2 "two" "002"
47 "13" 1 "g" NA "n" 1 402 861 2 "two" "002"
47 "13" 2 "B" NA "n" 1 419 1214 2 "two" "002"
47 "13" 3 "B" "g" "n" 1 752 1021 2 "two" "002"
47 "13" 4 "B" "b" "y" 1 869 592 2 "two" "002"
47 "13" 5 "g" "b" "n" 1 901 1122 2 "two" "002"
47 "13" 6 "T" "b" "n" 1 819 1481 2 "two" "002"
47 "13" 7 "V" "g" "n" 1 1236 564 2 "two" "002"
47 "13" 8 "b" "t" "n" 1 1169 643 2 "two" "002"
47 "13" 9 "v" "v" "y" 1 1002 832 2 "two" "002"
47 "13" 10 "V" "b" "n" 1 1253 1394 2 "two" "002"
47 "13" 11 "T" "v" "n" 1 1553 1219 2 "two" "002"
47 "13" 12 "B" "v" "n" 1 936 1014 2 "two" "002"
47 "13" 13 "V" "t" "n" 1 652 619 2 "two" "002"
47 "13" 14 "V" "b" "n" 1 686 1408 2 "two" "002"
47 "13" 15 "v" "v" "n" 0 369 1042 2 "two" "002"
47 "13" 16 "V" "v" "y" 1 1052 1482 2 "two" "002"
47 "13" 17 "v" "v" "y" 1 902 1422 2 "two" "002"
47 "13" 18 "b" "v" "n" 1 669 574 2 "two" "002"
47 "13" 19 "T" "v" "n" 1 818 1325 2 "two" "002"
47 "13" 20 "b" "b" "y" 1 1370 718 2 "two" "002"
47 "14" 1 "T" NA "n" 1 368 1048 2 "two" "002"
47 "14" 2 "t" NA "n" 1 819 598 2 "two" "002"
47 "14" 3 "v" "t" "n" 1 869 716 2 "two" "002"
47 "14" 4 "t" "t" "y" 1 668 830 2 "two" "002"
47 "14" 5 "g" "v" "n" 1 551 1457 2 "two" "002"
47 "14" 6 "B" "t" "n" 1 585 834 2 "two" "002"
47 "14" 7 "v" "g" "n" 1 1003 890 2 "two" "002"
47 "14" 8 "T" "b" "n" 1 834 1485 2 "two" "002"
47 "14" 9 "V" "v" "n" 0 619 1156 2 "two" "002"
47 "14" 10 "V" "t" "n" 1 1503 881 2 "two" "002"
47 "14" 11 "T" "v" "n" 1 969 1367 2 "two" "002"
47 "14" 12 "t" "v" "n" 1 1286 1463 2 "two" "002"
47 "14" 13 "v" "t" "n" 1 1069 1175 2 "two" "002"
47 "14" 14 "V" "t" "n" 1 886 1408 2 "two" "002"
47 "14" 15 "b" "v" "n" 1 669 680 2 "two" "002"
47 "14" 16 "G" "v" "n" 1 702 1096 2 "two" "002"
47 "14" 17 "t" "b" "n" 1 1036 1153 2 "two" "002"
47 "14" 18 "v" "g" "n" 1 636 826 2 "two" "002"
47 "14" 19 "v" "t" "n" 1 803 921 2 "two" "002"
47 "14" 20 "b" "v" "n" 1 619 887 2 "two" "002"
47 "15" 1 "V" NA "n" 1 368 693 2 "two" "002"
47 "15" 2 "b" NA "n" 1 535 1245 2 "two" "002"
47 "15" 3 "v" "v" "n" 0 469 562 2 "two" "002"
47 "15" 4 "t" "b" "n" 1 852 1259 2 "two" "002"
47 "15" 5 "G" "v" "n" 1 252 842 2 "two" "002"
47 "15" 6 "V" "t" "n" 1 669 541 2 "two" "002"
47 "15" 7 "B" "g" "n" 1 719 1255 2 "two" "002"
47 "15" 8 "B" "v" "n" 1 902 1013 2 "two" "002"
47 "15" 9 "v" "b" "n" 1 819 951 2 "two" "002"
47 "15" 10 "T" "b" "n" 1 901 691 2 "two" "002"
47 "15" 11 "t" "v" "n" 1 552 544 2 "two" "002"
47 "15" 12 "B" "t" "y" 0 702 578 2 "two" "002"
47 "15" 13 "B" "t" "n" 1 668 868 2 "two" "002"
47 "15" 14 "B" "b" "y" 1 1302 1111 2 "two" "002"
47 "15" 15 "t" "b" "n" 1 651 1060 2 "two" "002"
47 "15" 16 "t" "b" "n" 1 1119 885 2 "two" "002"
47 "15" 17 "V" "t" "n" 1 969 1366 2 "two" "002"
47 "15" 18 "g" "t" "n" 1 952 617 2 "two" "002"
47 "15" 19 "v" "v" "n" 0 1870 1006 2 "two" "002"
47 "15" 20 "T" "g" "n" 1 936 916 2 "two" "002"
47 "16" 1 "T" NA "n" 1 502 537 2 "two" "002"
47 "16" 2 "T" NA "n" 1 685 1119 2 "two" "002"
47 "16" 3 "b" "t" "n" 1 1002 1224 2 "two" "002"
47 "16" 4 "G" "t" "n" 1 836 1113 2 "two" "002"
47 "16" 5 "b" "b" "y" 1 1052 950 2 "two" "002"
47 "16" 6 "v" "g" "n" 1 1069 605 2 "two" "002"
47 "16" 7 "B" "b" "n" 0 1169 1104 2 "two" "002"
47 "16" 8 "t" "v" "n" 1 702 940 2 "two" "002"
47 "16" 9 "V" "b" "n" 1 1236 1283 2 "two" "002"
47 "16" 10 "v" "t" "y" 0 702 1480 2 "two" "002"
47 "16" 11 "v" "v" "n" 0 535 847 2 "two" "002"
47 "16" 12 "V" "v" "n" 0 435 807 2 "two" "002"
47 "16" 13 "G" "v" "n" 1 853 622 2 "two" "002"
47 "16" 14 "T" "v" "n" 1 619 1409 2 "two" "002"
47 "16" 15 "G" "g" "y" 1 836 1304 2 "two" "002"
47 "16" 16 "v" "t" "n" 1 868 1497 2 "two" "002"
47 "16" 17 "b" "g" "n" 1 919 1373 2 "two" "002"
47 "16" 18 "B" "v" "y" 0 701 1307 2 "two" "002"
47 "16" 19 "b" "b" "n" 0 535 756 2 "two" "002"
47 "16" 20 "t" "b" "n" 1 652 851 2 "two" "002"
47 "17" 1 "g" NA "n" 1 535 520 1 "two" "002"
47 "17" 2 "G" "g" "y" 1 584 574 1 "two" "002"
47 "17" 3 "B" "g" "n" 1 585 591 1 "two" "002"
47 "17" 4 "T" "b" "n" 1 602 705 1 "two" "002"
47 "17" 5 "v" "t" "n" 1 569 699 1 "two" "002"
47 "17" 6 "B" "v" "n" 1 468 1252 1 "two" "002"
47 "17" 7 "B" "b" "y" 1 484 1311 1 "two" "002"
47 "17" 8 "B" "b" "y" 1 385 1052 1 "two" "002"
47 "17" 9 "B" "b" "y" 1 468 667 1 "two" "002"
47 "17" 10 "V" "b" "n" 1 469 1469 1 "two" "002"
47 "17" 11 "T" "v" "n" 1 518 738 1 "two" "002"
47 "17" 12 "V" "t" "n" 1 769 1311 1 "two" "002"
47 "17" 13 "b" "v" "n" 1 519 969 1 "two" "002"
47 "17" 14 "B" "b" "y" 1 385 1328 1 "two" "002"
47 "17" 15 "B" "b" "y" 1 368 983 1 "two" "002"
47 "17" 16 "T" "b" "n" 1 702 809 1 "two" "002"
47 "17" 17 "G" "t" "n" 1 535 782 1 "two" "002"
47 "17" 18 "v" "g" "n" 1 569 879 1 "two" "002"
47 "17" 19 "T" "v" "n" 1 602 1126 1 "two" "002"
47 "17" 20 "T" "t" "n" 0 469 706 1 "two" "002"
47 "18" 1 "g" NA "n" 1 719 1453 2 "two" "002"
47 "18" 2 "g" NA "n" 1 702 1136 2 "two" "002"
47 "18" 3 "G" "g" "y" 1 502 825 2 "two" "002"
47 "18" 4 "t" "g" "n" 1 602 1178 2 "two" "002"
47 "18" 5 "b" "g" "n" 1 819 1419 2 "two" "002"
47 "18" 6 "g" "t" "n" 1 1035 750 2 "two" "002"
47 "18" 7 "t" "b" "y" 0 1036 925 2 "two" "002"
47 "18" 8 "t" "g" "n" 1 636 669 2 "two" "002"
47 "18" 9 "V" "t" "n" 1 769 947 2 "two" "002"
47 "18" 10 "t" "t" "y" 1 852 956 2 "two" "002"
47 "18" 11 "b" "v" "n" 1 1219 586 2 "two" "002"
47 "18" 12 "G" "t" "n" 1 1970 1430 2 "two" "002"
47 "18" 13 "b" "b" "y" 1 902 1330 2 "two" "002"
47 "18" 14 "V" "g" "n" 1 936 1073 2 "two" "002"
47 "18" 15 "t" "b" "n" 1 651 916 2 "two" "002"
47 "18" 16 "g" "v" "n" 1 902 1466 2 "two" "002"
47 "18" 17 "B" "t" "n" 1 619 1428 2 "two" "002"
47 "18" 18 "g" "g" "n" 0 535 783 2 "two" "002"
47 "18" 19 "v" "b" "n" 1 735 685 2 "two" "002"
47 "18" 20 "V" "g" "n" 1 1086 868 2 "two" "002"
47 "19" 1 "g" NA "n" 1 752 762 2 "two" "002"
47 "19" 2 "G" NA "n" 1 786 1017 2 "two" "002"
47 "19" 3 "T" "g" "n" 1 751 1421 2 "two" "002"
47 "19" 4 "v" "g" "n" 1 1101 622 2 "two" "002"
47 "19" 5 "T" "t" "y" 1 969 673 2 "two" "002"
47 "19" 6 "V" "v" "y" 1 1536 1005 2 "two" "002"
47 "19" 7 "b" "t" "n" 1 869 1168 2 "two" "002"
47 "19" 8 "V" "v" "n" 0 1236 853 2 "two" "002"
47 "19" 9 "g" "b" "n" 1 1069 1075 2 "two" "002"
47 "19" 10 "t" "v" "n" 1 1453 1429 2 "two" "002"
47 "19" 11 "T" "g" "n" 1 735 1231 2 "two" "002"
47 "19" 12 "G" "t" "y" 0 702 794 2 "two" "002"
47 "19" 13 "b" "t" "n" 1 1502 696 2 "two" "002"
47 "19" 14 "v" "g" "n" 1 402 1167 2 "two" "002"
47 "19" 15 "G" "b" "n" 1 852 554 2 "two" "002"
47 "19" 16 "g" "v" "n" 1 1053 1402 2 "two" "002"
47 "19" 17 "G" "g" "y" 1 968 1377 2 "two" "002"
47 "19" 18 "G" "g" "y" 1 819 582 2 "two" "002"
47 "19" 19 "t" "g" "n" 1 1002 1273 2 "two" "002"
47 "19" 20 "g" "g" "n" 0 1436 740 2 "two" "002"
47 "20" 1 "v" NA "n" 1 535 1159 2 "two" "002"
47 "20" 2 "V" NA "n" 1 498 1146 2 "two" "002"
47 "20" 3 "B" "v" "n" 1 685 799 2 "two" "002"
47 "20" 4 "T" "v" "n" 1 1086 1496 2 "two" "002"
47 "20" 5 "b" "b" "y" 1 868 635 2 "two" "002"
47 "20" 6 "b" "t" "n" 1 952 658 2 "two" "002"
47 "20" 7 "b" "b" "n" 0 1003 1254 2 "two" "002"
47 "20" 8 "B" "b" "n" 0 786 900 2 "two" "002"
47 "20" 9 "b" "b" "y" 1 1837 1496 2 "two" "002"
47 "20" 10 "g" "b" "n" 1 853 740 2 "two" "002"
47 "20" 11 "G" "b" "n" 1 1202 709 2 "two" "002"
47 "20" 12 "B" "g" "y" 0 1870 932 2 "two" "002"
47 "20" 13 "T" "g" "n" 1 1636 765 2 "two" "002"
47 "20" 14 "g" "b" "n" 1 1320 1473 2 "two" "002"
47 "20" 15 "G" "t" "n" 1 334 1376 2 "two" "002"
47 "20" 16 "V" "g" "n" 1 836 555 2 "two" "002"
47 "20" 17 "V" "g" "n" 1 1053 990 2 "two" "002"
47 "20" 18 "V" "v" "y" 1 869 990 2 "two" "002"
47 "20" 19 "T" "v" "n" 1 902 1477 2 "two" "002"
47 "20" 20 "B" "v" NA 0 NA 1045 2 "two" "002"
48 "P" 1 "g" NA NA -1 NA 1286 1 "P" "001"
48 "P" 2 "t" "g" NA -1 NA 1299 1 "P" "001"
48 "P" 3 "V" "t" "n" 1 1469 977 1 "P" "001"
48 "P" 4 "V" "v" "n" 0 986 1344 1 "P" "001"
48 "P" 5 "t" "v" "y" 0 969 915 1 "P" "001"
48 "P" 6 "B" "t" "n" 1 952 875 1 "P" "001"
48 "P" 7 "V" "b" "y" 0 1085 585 1 "P" "001"
48 "P" 8 "B" "v" "n" 1 951 980 1 "P" "001"
48 "P" 9 "t" "b" "n" 1 786 649 1 "P" "001"
48 "P" 10 "v" "t" "n" 1 852 741 1 "P" "001"
48 "P" 11 "v" "v" "y" 1 685 1154 1 "P" "001"
48 "P" 12 "v" "v" "y" 1 669 995 1 "P" "001"
48 "P" 13 "V" "v" "y" 1 735 557 1 "P" "001"
48 "P" 14 "v" "v" "y" 1 585 1301 1 "P" "001"
48 "P" 15 "t" "v" "n" 1 519 1099 1 "P" "001"
48 "P" 16 "v" "t" "y" 0 652 632 1 "P" "001"
48 "P" 17 "V" "v" "y" 1 552 1050 1 "P" "001"
48 "P" 18 "g" "v" "n" 1 802 1235 1 "P" "001"
48 "P" 19 "G" "g" "y" 1 902 762 1 "P" "001"
48 "P" 20 "V" "g" "n" 1 802 1064 1 "P" "001"
48 "P" 21 "T" "v" "n" 1 819 613 1 "P" "001"
48 "P" 22 "v" "t" "n" 1 719 1298 1 "P" "001"
48 "P" 23 "B" "v" "n" 1 685 1236 1 "P" "001"
48 "P" 24 "V" "b" "n" 1 685 847 1 "P" "001"
48 "P" 25 "V" "v" "y" 1 519 744 1 "P" "001"
48 "P" 26 "g" "v" "n" 1 602 658 1 "P" "001"
48 "P" 27 "t" "g" "n" 1 635 1394 1 "P" "001"
48 "P" 28 "G" "t" "n" 1 735 524 1 "P" "001"
48 "P" 29 "B" "g" "n" 1 702 835 1 "P" "001"
48 "P" 30 "G" "b" "n" 1 669 1033 1 "P" "001"
48 "P" 31 "G" "g" "y" 1 602 1397 1 "P" "001"
48 "P" 32 "t" "g" "n" 1 502 1167 1 "P" "001"
48 "P" 33 "t" "t" "y" 1 752 664 1 "P" "001"
48 "P" 34 "t" "t" "y" 1 601 985 1 "P" "001"
48 "P" 35 "B" "t" "n" 1 484 951 1 "P" "001"
48 "P" 36 "v" "b" "n" 1 802 1029 1 "P" "001"
48 "P" 37 "T" "v" "n" 1 836 1053 1 "P" "001"
48 "P" 38 "T" "t" "y" 1 669 882 1 "P" "001"
48 "P" 39 "G" "t" "n" 1 769 806 1 "P" "001"
48 "P" 40 "B" "g" "n" 1 551 1176 1 "P" "001"
48 "1" 1 "T" NA "n" 1 1236 1233 2 "adaptive" "001"
48 "1" 2 "T" NA "n" 1 500 1065 2 "adaptive" "001"
48 "1" 3 "b" "t" "n" 1 1269 1158 2 "adaptive" "001"
48 "1" 4 "V" "t" "n" 1 886 1347 2 "adaptive" "001"
48 "1" 5 "G" "b" "n" 1 1269 677 2 "adaptive" "001"
48 "1" 6 "B" "v" "n" 1 1587 540 2 "adaptive" "001"
48 "1" 7 "t" "g" NA 0 NA 523 2 "adaptive" "001"
48 "1" 8 "g" "b" "n" 1 498 719 2 "adaptive" "001"
48 "1" 9 "B" "t" "y" 0 935 1358 2 "adaptive" "001"
48 "1" 10 "V" "g" "n" 1 985 1147 2 "adaptive" "001"
48 "1" 11 "B" "b" "y" 1 786 979 2 "adaptive" "001"
48 "1" 12 "b" "v" "n" 1 1120 959 2 "adaptive" "001"
48 "1" 13 "G" "b" "n" 1 1119 1461 2 "adaptive" "001"
48 "1" 14 "B" "b" "y" 1 1036 1436 2 "adaptive" "001"
48 "1" 15 "G" "g" "y" 1 1036 524 2 "adaptive" "001"
48 "1" 16 "b" "b" "y" 1 1452 851 2 "adaptive" "001"
48 "1" 17 "V" "g" "n" 1 802 830 2 "adaptive" "001"
48 "1" 18 "b" "b" "y" 1 968 1174 2 "adaptive" "001"
48 "1" 19 "B" "v" "n" 1 1002 1462 2 "adaptive" "001"
48 "1" 20 "V" "b" "y" 0 1085 1497 2 "adaptive" "001"
48 "2" 1 "V" NA "n" 1 1035 585 2 "adaptive" "001"
48 "2" 2 "t" NA "n" 1 902 695 2 "adaptive" "001"
48 "2" 3 "T" "v" "n" 1 902 925 2 "adaptive" "001"
48 "2" 4 "B" "t" "n" 1 1153 1139 2 "adaptive" "001"
48 "2" 5 "V" "t" "n" 1 952 1136 2 "adaptive" "001"
48 "2" 6 "v" "b" "n" 1 886 968 2 "adaptive" "001"
48 "2" 7 "B" "v" "n" 1 1236 861 2 "adaptive" "001"
48 "2" 8 "G" "v" "n" 1 1253 993 2 "adaptive" "001"
48 "2" 9 "b" "b" "y" 1 1353 1443 2 "adaptive" "001"
48 "2" 10 "t" "g" "n" 1 1153 1403 2 "adaptive" "001"
48 "2" 11 "v" "b" "n" 1 1119 1337 2 "adaptive" "001"
48 "2" 12 "v" "t" "n" 1 1386 824 2 "adaptive" "001"
48 "2" 13 "t" "v" "n" 1 886 1416 2 "adaptive" "001"
48 "2" 14 "T" "v" "n" 1 1069 1434 2 "adaptive" "001"
48 "2" 15 "t" "t" "y" 1 902 711 2 "adaptive" "001"
48 "2" 16 "B" "t" "n" 1 1136 891 2 "adaptive" "001"
48 "2" 17 "T" "t" "y" 1 702 606 2 "adaptive" "001"
48 "2" 18 "b" "b" "y" 1 936 1264 2 "adaptive" "001"
48 "2" 19 "G" "t" "n" 1 1035 1168 2 "adaptive" "001"
48 "2" 20 "G" "b" "n" 1 1069 1113 2 "adaptive" "001"
48 "3" 1 "v" NA "n" 1 868 1343 3 "adaptive" "001"
48 "3" 2 "g" NA "n" 1 1119 660 3 "adaptive" "001"
48 "3" 3 "g" NA "n" 1 1185 871 3 "adaptive" "001"
48 "3" 4 "G" "v" "y" 0 1319 800 3 "adaptive" "001"
48 "3" 5 "v" "g" "n" 1 1469 746 3 "adaptive" "001"
48 "3" 6 "T" "g" "n" 1 1620 1201 3 "adaptive" "001"
48 "3" 7 "v" "g" "n" 1 1736 1200 3 "adaptive" "001"
48 "3" 8 "v" "v" "n" 0 1286 959 3 "adaptive" "001"
48 "3" 9 "B" "t" "n" 1 1503 676 3 "adaptive" "001"
48 "3" 10 "v" "v" "y" 1 969 922 3 "adaptive" "001"
48 "3" 11 "V" "v" "y" 1 785 1472 3 "adaptive" "001"
48 "3" 12 "b" "b" "y" 1 852 1277 3 "adaptive" "001"
48 "3" 13 "V" "v" "y" 1 1186 990 3 "adaptive" "001"
48 "3" 14 "T" "v" "n" 1 852 1121 3 "adaptive" "001"
48 "3" 15 "T" "b" "n" 1 952 904 3 "adaptive" "001"
48 "3" 16 "V" "v" "n" 0 1253 1201 3 "adaptive" "001"
48 "3" 17 "G" "t" "n" 1 1336 1297 3 "adaptive" "001"
48 "3" 18 "B" "t" "n" 1 1019 724 3 "adaptive" "001"
48 "3" 19 "B" "v" "n" 1 1136 1419 3 "adaptive" "001"
48 "3" 20 "t" "g" "n" 1 1687 1278 3 "adaptive" "001"
48 "4" 1 "t" NA "n" 1 1120 1141 3 "adaptive" "001"
48 "4" 2 "b" NA "n" 1 919 909 3 "adaptive" "001"
48 "4" 3 "t" NA "n" 1 1119 1158 3 "adaptive" "001"
48 "4" 4 "G" "t" "n" 1 1119 1441 3 "adaptive" "001"
48 "4" 5 "B" "b" "n" 0 1436 974 3 "adaptive" "001"
48 "4" 6 "B" "t" "n" 1 1251 840 3 "adaptive" "001"
48 "4" 7 "t" "g" "n" 1 1836 510 3 "adaptive" "001"
48 "4" 8 "B" "b" NA 0 NA 1466 3 "adaptive" "001"
48 "4" 9 "G" "b" "n" 1 498 1409 3 "adaptive" "001"
48 "4" 10 "t" "t" "y" 1 1436 719 3 "adaptive" "001"
48 "4" 11 "b" "b" "n" 0 1303 735 3 "adaptive" "001"
48 "4" 12 "g" "g" "n" 0 1386 1269 3 "adaptive" "001"
48 "4" 13 "T" "t" "y" 1 702 695 3 "adaptive" "001"
48 "4" 14 "t" "b" "n" 1 1019 1432 3 "adaptive" "001"
48 "4" 15 "t" "g" "n" 1 1219 1066 3 "adaptive" "001"
48 "4" 16 "G" "t" "y" 0 719 810 3 "adaptive" "001"
48 "4" 17 "G" "t" "n" 1 969 512 3 "adaptive" "001"
48 "4" 18 "t" "t" "y" 1 1119 832 3 "adaptive" "001"
48 "4" 19 "t" "g" "y" 0 1086 801 3 "adaptive" "001"
48 "4" 20 "T" "g" "n" 1 1635 961 3 "adaptive" "001"
48 "5" 1 "t" NA "n" 1 935 984 2 "adaptive" "001"
48 "5" 2 "g" NA "n" 1 1019 734 2 "adaptive" "001"
48 "5" 3 "B" "t" "n" 1 1036 761 2 "adaptive" "001"
48 "5" 4 "g" "g" "y" 1 1119 972 2 "adaptive" "001"
48 "5" 5 "B" "b" "y" 1 1102 887 2 "adaptive" "001"
48 "5" 6 "T" "g" "n" 1 1803 1272 2 "adaptive" "001"
48 "5" 7 "b" "b" "n" 0 1520 1307 2 "adaptive" "001"
48 "5" 8 "G" "t" "n" 1 1369 1334 2 "adaptive" "001"
48 "5" 9 "g" "b" "n" 1 1636 638 2 "adaptive" "001"
48 "5" 10 "t" "g" "n" 1 1236 936 2 "adaptive" "001"
48 "5" 11 "b" "g" "n" 1 1520 758 2 "adaptive" "001"
48 "5" 12 "v" "t" "n" 1 1153 1496 2 "adaptive" "001"
48 "5" 13 "V" "b" "n" 1 1637 1492 2 "adaptive" "001"
48 "5" 14 "B" "v" "n" 1 1436 1207 2 "adaptive" "001"
48 "5" 15 "T" "v" "n" 1 1736 1208 2 "adaptive" "001"
48 "5" 16 "v" "b" "n" 1 1169 545 2 "adaptive" "001"
48 "5" 17 "B" "t" "n" 1 1887 1249 2 "adaptive" "001"
48 "5" 18 "b" "v" "y" 0 1453 693 2 "adaptive" "001"
48 "5" 19 "B" "b" "y" 1 802 1390 2 "adaptive" "001"
48 "5" 20 "V" "b" "n" 1 918 1049 2 "adaptive" "001"
48 "6" 1 "B" NA "n" 1 986 1303 3 "adaptive" "001"
48 "6" 2 "V" NA "n" 1 352 1407 3 "adaptive" "001"
48 "6" 3 "b" NA "n" 1 919 501 3 "adaptive" "001"
48 "6" 4 "V" "b" "n" 1 1369 1212 3 "adaptive" "001"
48 "6" 5 "V" "v" "y" 1 534 858 3 "adaptive" "001"
48 "6" 6 "v" "b" "n" 1 1270 1043 3 "adaptive" "001"
48 "6" 7 "g" "v" "n" 1 1052 1444 3 "adaptive" "001"
48 "6" 8 "v" "v" "y" 1 1003 1459 3 "adaptive" "001"
48 "6" 9 "t" "v" "n" 1 852 1490 3 "adaptive" "001"
48 "6" 10 "B" "g" "n" 1 1369 913 3 "adaptive" "001"
48 "6" 11 "v" "v" "n" 0 1436 735 3 "adaptive" "001"
48 "6" 12 "B" "t" "y" 0 1285 1068 3 "adaptive" "001"
48 "6" 13 "t" "b" "n" 1 1252 1365 3 "adaptive" "001"
48 "6" 14 "V" "v" "n" 0 1368 1356 3 "adaptive" "001"
48 "6" 15 "G" "b" "y" 0 1403 576 3 "adaptive" "001"
48 "6" 16 "g" "t" "n" 1 1335 918 3 "adaptive" "001"
48 "6" 17 "T" "v" "n" 1 1319 927 3 "adaptive" "001"
48 "6" 18 "V" "g" "n" 1 1603 1142 3 "adaptive" "001"
48 "6" 19 "T" "g" "n" 1 1787 1066 3 "adaptive" "001"
48 "6" 20 "b" "t" "n" 1 1252 1497 3 "adaptive" "001"
48 "7" 1 "B" NA "n" 1 619 1206 3 "adaptive" "001"
48 "7" 2 "G" NA "n" 1 785 1315 3 "adaptive" "001"
48 "7" 3 "G" NA "n" 1 886 989 3 "adaptive" "001"
48 "7" 4 "V" "b" "n" 1 1253 1298 3 "adaptive" "001"
48 "7" 5 "B" "g" "n" 1 1386 790 3 "adaptive" "001"
48 "7" 6 "T" "g" "n" 1 1753 1303 3 "adaptive" "001"
48 "7" 7 "G" "v" "y" 0 1086 869 3 "adaptive" "001"
48 "7" 8 "g" "b" "n" 1 1069 1436 3 "adaptive" "001"
48 "7" 9 "g" "t" "n" 1 1152 841 3 "adaptive" "001"
48 "7" 10 "G" "g" "n" 0 1019 544 3 "adaptive" "001"
48 "7" 11 "b" "g" "n" 1 1086 726 3 "adaptive" "001"
48 "7" 12 "T" "g" "n" 1 1619 1380 3 "adaptive" "001"
48 "7" 13 "B" "g" "n" 1 1319 1486 3 "adaptive" "001"
48 "7" 14 "b" "b" "y" 1 986 571 3 "adaptive" "001"
48 "7" 15 "g" "t" "n" 1 885 1223 3 "adaptive" "001"
48 "7" 16 "v" "b" "n" 1 1169 1188 3 "adaptive" "001"
48 "7" 17 "G" "b" "n" 1 1236 1020 3 "adaptive" "001"
48 "7" 18 "V" "g" "y" 0 1169 1257 3 "adaptive" "001"
48 "7" 19 "T" "v" "n" 1 1268 666 3 "adaptive" "001"
48 "7" 20 "T" "g" "n" 1 1269 775 3 "adaptive" "001"
48 "8" 1 "t" NA "n" 1 652 693 3 "adaptive" "001"
48 "8" 2 "B" NA "n" 1 869 1041 3 "adaptive" "001"
48 "8" 3 "v" NA "n" 1 685 534 3 "adaptive" "001"
48 "8" 4 "b" "t" "n" 1 1253 977 3 "adaptive" "001"
48 "8" 5 "B" "b" "y" 1 1053 1191 3 "adaptive" "001"
48 "8" 6 "b" "v" "n" 1 1103 1013 3 "adaptive" "001"
48 "8" 7 "B" "b" "y" 1 936 838 3 "adaptive" "001"
48 "8" 8 "b" "b" "y" 1 819 1258 3 "adaptive" "001"
48 "8" 9 "B" "b" "y" 1 619 1420 3 "adaptive" "001"
48 "8" 10 "T" "b" "n" 1 819 1299 3 "adaptive" "001"
48 "8" 11 "G" "b" "n" 1 886 1154 3 "adaptive" "001"
48 "8" 12 "b" "b" "y" 1 936 994 3 "adaptive" "001"
48 "8" 13 "g" "t" "y" 0 1435 841 3 "adaptive" "001"
48 "8" 14 "v" "g" "n" 1 1053 1169 3 "adaptive" "001"
48 "8" 15 "b" "b" "n" 0 952 1244 3 "adaptive" "001"
48 "8" 16 "V" "g" "n" 1 1570 576 3 "adaptive" "001"
48 "8" 17 "g" "v" "n" 1 1336 1321 3 "adaptive" "001"
48 "8" 18 "G" "b" "n" 1 1220 1153 3 "adaptive" "001"
48 "8" 19 "G" "v" "n" 1 1403 1105 3 "adaptive" "001"
48 "8" 20 "b" "g" "n" 1 1086 1347 3 "adaptive" "001"
48 "9" 1 "T" NA "n" 1 903 958 4 "adaptive" "001"
48 "9" 2 "t" NA "n" 1 785 591 4 "adaptive" "001"
48 "9" 3 "b" NA "n" 1 1185 628 4 "adaptive" "001"
48 "9" 4 "g" NA "n" 1 1186 582 4 "adaptive" "001"
48 "9" 5 "G" "t" "n" 1 1036 746 4 "adaptive" "001"
48 "9" 6 "g" "t" "n" 1 1386 1450 4 "adaptive" "001"
48 "9" 7 "G" "b" NA 0 NA 794 4 "adaptive" "001"
48 "9" 8 "g" "g" "n" 0 515 527 4 "adaptive" "001"
48 "9" 9 "b" "g" "n" 1 1336 665 4 "adaptive" "001"
48 "9" 10 "t" "g" "n" 1 1253 648 4 "adaptive" "001"
48 "9" 11 "v" "g" "n" 1 1102 1218 4 "adaptive" "001"
48 "9" 12 "t" "g" "n" 1 1219 542 4 "adaptive" "001"
48 "9" 13 "t" "b" "y" 0 969 1399 4 "adaptive" "001"
48 "9" 14 "G" "t" "y" 0 952 1084 4 "adaptive" "001"
48 "9" 15 "g" "v" "y" 0 869 602 4 "adaptive" "001"
48 "9" 16 "b" "t" "n" 1 1436 980 4 "adaptive" "001"
48 "9" 17 "G" "t" "n" 1 1169 968 4 "adaptive" "001"
48 "9" 18 "B" "g" "n" 1 1386 558 4 "adaptive" "001"
48 "9" 19 "T" "g" "n" 1 951 1073 4 "adaptive" "001"
48 "9" 20 "g" "b" "y" 0 1169 1073 4 "adaptive" "001"
48 "10" 1 "g" NA "n" 1 752 788 3 "adaptive" "001"
48 "10" 2 "T" NA "n" 1 635 610 3 "adaptive" "001"
48 "10" 3 "g" NA "n" 1 936 695 3 "adaptive" "001"
